timestamp,AccX,AccY,AccZ
1567560367986,-0.07379653930664062,0.5849835205078125,9.625433807373048
1567560368016,-0.10627899169921876,0.6074368286132813,9.758058013916017
1567560368083,-0.10747650146484375,0.6120771789550782,9.614955596923828
1567560368149,0.1287322998046875,0.6200106811523438,9.662107543945313
1567560368216,0.03981719970703125,0.6626719665527344,9.679321746826172
1567560368283,-0.08113128662109376,0.6111790466308594,9.684560852050781
1567560368349,-0.02365081787109375,0.6004014587402344,9.663604431152343
1567560368416,0.015867004394531252,0.61072998046875,9.688153381347657
1567560368483,-0.0056881713867187505,0.6363267517089845,9.681267700195313
1567560368549,-0.043858795166015624,0.621507568359375,9.661808166503906
1567560368616,-0.07649093627929687,0.5917195129394531,9.675429840087892
1567560368683,-0.04415817260742188,0.6044430541992187,9.701924743652345
1567560368749,-0.01916015625,0.599802703857422,9.669442291259767
1567560368816,-0.06945556640625,0.6010002136230469,9.654922485351562
1567560368883,-0.08068222045898438,0.6066883850097656,9.685758361816406
1567560368949,-0.06316864013671876,0.6004014587402344,9.673483886718751
1567560369016,-0.05598358154296875,0.6222560119628907,9.655072174072266
1567560369083,-0.05044509887695313,0.6369255065917969,9.687554626464845
1567560369149,-0.06915618896484375,0.6020480346679687,9.679920501708985
1567560369216,-0.0820294189453125,0.6059399414062501,9.673334197998047
1567560369283,-0.060174865722656255,0.61552001953125,9.665400695800782
1567560369349,-0.04460723876953125,0.6125262451171876,9.662406921386719
1567560369416,-0.051043853759765626,0.6138734436035157,9.692793731689454
1567560369482,-0.061671752929687504,0.6002517700195312,9.672585754394532
1567560369549,-0.06346801757812501,0.5971083068847657,9.658215637207032
1567560369616,-0.059725799560546876,0.6059399414062501,9.676477661132813
1567560369683,-0.056282958984375006,0.6101312255859376,9.687105560302735
1567560369749,-0.060174865722656255,0.6110293579101563,9.671388244628906
1567560369816,-0.03442840576171875,0.559237060546875,9.631571044921875
1567560369883,-0.06735992431640625,0.5034031677246094,9.423803100585937
1567560369949,-0.10702743530273438,0.64905029296875,9.808952178955078
1567560370016,-0.12783416748046875,0.6234535217285156,9.567803649902345
1567560370083,-0.16136444091796875,0.5700146484375,9.68306396484375
1567560370149,-0.13936019897460938,0.5786965942382812,9.673783264160157
1567560370216,-0.1926493835449219,0.5718109130859376,9.63800765991211
1567560370283,-0.07873626708984376,0.599952392578125,9.559870147705078
1567560370349,-0.16196319580078125,0.5674699401855469,9.754016418457033
1567560370416,-0.22004241943359376,0.5740562438964844,9.677824859619141
1567560370483,-0.07110214233398438,0.6057902526855469,9.662556610107423
1567560370549,-0.0688568115234375,0.5959107971191406,9.678573303222656
1567560370616,-0.15103591918945314,0.6068380737304688,9.60732147216797
1567560370683,-0.10553054809570313,0.5763015747070312,9.714797973632812
1567560370749,-0.07439529418945313,0.5644761657714844,9.709558868408203
1567560370816,-0.3438349914550781,0.5260061645507813,9.631271667480469
1567560370883,-0.20193008422851563,0.5215155029296875,9.649683380126953
1567560370949,0.04535568237304688,0.55564453125,9.475296020507812
1567560371016,-0.13007949829101564,0.5599855041503906,9.85161346435547
1567560371082,-0.3833528137207031,0.6420149230957032,9.598489837646484
1567560371149,-0.40086639404296875,0.59396484375,9.709259490966797
1567560371216,-0.2667453002929688,0.5993536376953126,9.603279876708985
1567560371283,0.05643264770507813,0.628692626953125,9.62887664794922
1567560371349,-0.30566436767578126,0.5815406799316406,9.672286376953126
1567560371416,-0.18651214599609375,0.5984555053710938,9.63890579223633
1567560371483,0.058528289794921876,0.5965095520019531,9.632618865966798
1567560371549,-0.15537689208984376,0.5763015747070312,9.617799682617187
1567560371616,-0.08936416625976563,0.5975573730468751,9.747430114746095
1567560371683,0.019309844970703125,0.6421646118164063,9.75012451171875
1567560371749,0.15657440185546875,0.6578819274902344,9.63172073364258
1567560371816,0.11151809692382814,0.6087840270996094,9.651180267333984
1567560371883,0.09131011962890626,0.5971083068847657,9.761800231933595
1567560371949,-0.2561174011230469,0.5596861267089844,9.838440856933595
1567560372016,-0.052241363525390626,0.6138734436035157,9.79128890991211
1567560372083,-0.32946487426757814,0.6114784240722656,9.756561126708984
1567560372149,-0.2932402038574219,0.5709127807617188,9.711654510498047
1567560372216,-0.4005670166015625,0.5715115356445313,9.592651977539063
1567560372283,-0.3698808288574219,0.5501060485839844,9.638456726074219
1567560372349,-0.3634442138671875,0.5878276062011719,9.705666961669923
1567560372416,-0.048648834228515625,0.5920188903808594,9.716444549560547
1567560372483,-0.3411405944824219,0.5665718078613281,9.772278442382813
1567560372549,-0.04954696655273438,0.5972579956054688,9.583670654296876
1567560372616,0.026494903564453127,0.5965095520019531,9.802665252685548
1567560372682,-0.2700384521484375,0.5516029357910156,9.77931381225586
1567560372748,-0.010328521728515625,0.6527925109863282,9.67198699951172
1567560372816,-0.17962646484375,0.5530998229980469,9.723629608154297
1567560372883,-0.02365081787109375,0.5757028198242188,9.71704330444336
1567560372949,-0.11361373901367187,0.6364764404296875,9.751172332763673
1567560373016,0.1531315612792969,0.61072998046875,9.519603881835938
1567560373083,-0.032183074951171876,0.6129753112792969,9.670190734863281
1567560373149,-0.02664459228515625,0.5689668273925782,9.701775054931641
1567560373216,-0.12978012084960938,0.6032455444335938,9.674681396484376
1567560373283,-0.25237518310546875,0.6197113037109375,9.81568817138672
1567560373349,0.09340576171875001,0.6204597473144532,9.668544158935548
1567560373416,-0.12020004272460938,0.5511538696289062,9.625733184814454
1567560373483,0.09041198730468751,0.5996530151367188,9.619895324707032
1567560373549,-0.15612533569335937,0.6188131713867188,9.749076690673828
1567560373616,0.009131011962890626,0.599802703857422,9.596992950439454
1567560373683,-0.16974700927734376,0.6038442993164063,9.776769104003908
1567560373749,0.1389111328125,0.5719606018066407,9.607171783447265
1567560373816,-0.34907409667968753,0.5948629760742188,9.733359375000001
1567560373883,0.024099884033203126,0.6015989685058594,9.6231884765625
1567560373949,-0.2089654541015625,0.6140231323242188,9.740694122314453
1567560374016,0.07155120849609375,0.5936654663085937,9.589807891845703
1567560374083,-0.0028440856933593752,0.6259982299804688,9.72138427734375
1567560374149,-0.03981719970703125,0.5683680725097656,9.556427307128907
1567560374216,-0.3209326171875,0.5885760498046876,9.708960113525391
1567560374283,-0.1478924560546875,0.6388714599609375,9.65716781616211
1567560374349,-0.09535171508789063,0.643062744140625,9.722282409667969
1567560374416,0.054636383056640626,0.5827381896972657,9.558373260498048
1567560374483,-0.09954299926757813,0.5885760498046876,9.82721420288086
1567560374549,0.07289840698242188,0.561632080078125,9.540560302734375
1567560374616,-0.26839187622070315,0.5881269836425782,9.674082641601563
1567560374683,-0.0017962646484375,0.6197113037109375,9.73141342163086
1567560374748,-0.13995895385742188,0.6201603698730469,9.892029418945313
1567560374816,-0.21195922851562501,0.5780978393554688,9.944270782470703
1567560374883,-0.08292755126953126,0.5921685791015625,9.59295135498047
1567560374949,-0.1484912109375,0.5830375671386719,9.836345214843751
1567560375016,-0.16480728149414064,0.6357279968261719,9.995015258789063
1567560375083,-0.02305206298828125,0.5740562438964844,9.684111785888673
1567560375149,-0.2149530029296875,0.6008505249023438,9.776320037841797
1567560375216,-0.00868194580078125,0.5867797851562501,9.646988983154298
1567560375283,0.09804611206054688,0.5815406799316406,9.611812133789064
1567560375349,-0.02604583740234375,0.5608836364746094,9.617200927734375
1567560375416,0.094603271484375,0.5760021972656251,9.467063140869142
1567560375483,-0.2836601257324219,0.6096821594238282,9.854607238769532
1567560375549,-0.199984130859375,0.5686674499511719,9.639654235839844
1567560375616,-0.20207977294921875,0.6030958557128907,9.752818908691406
1567560375683,0.15133529663085937,0.6182144165039063,9.637857971191407
1567560375749,0.14265335083007813,0.5980064392089844,9.588760070800781
1567560375816,-0.2628533935546875,0.6090834045410156,9.773326263427736
1567560375883,0.07454498291015625,0.6108796691894531,9.616302795410157
1567560375949,-0.22183868408203125,0.6042933654785156,9.774374084472656
1567560376016,0.0975970458984375,0.6171665954589844,9.67198699951172
1567560376083,-0.21959335327148438,0.5971083068847657,9.731114044189454
1567560376149,-0.21091140747070314,0.5995033264160157,9.804611206054688
1567560376216,0.01676513671875,0.6176156616210938,9.71135513305664
1567560376283,0.03442840576171875,0.5635780334472656,9.59774139404297
1567560376349,0.16600479125976564,0.6083349609375001,9.615554351806642
1567560376416,-0.1478924560546875,0.62989013671875,9.761051788330079
1567560376483,-0.0844244384765625,0.6087840270996094,9.645941162109375
1567560376549,-0.26884094238281253,0.5878276062011719,9.543703765869141
1567560376616,0.1580712890625,0.5707630920410156,9.638456726074219
1567560376683,-0.15477813720703126,0.564027099609375,9.575886840820313
1567560376749,0.14953903198242188,0.5975573730468751,9.76299774169922
1567560376816,-0.24129821777343752,0.6201603698730469,9.762398986816407
1567560376883,-0.089813232421875,0.5887257385253907,9.677226104736329
1567560376949,0.06152206420898438,0.5878276062011719,9.564360809326173
1567560377016,0.13412109375,0.5656736755371095,9.63172073364258
1567560377083,-0.026494903564453127,0.5625302124023438,9.55328384399414
1567560377149,-0.239501953125,0.5899232482910156,9.800120544433595
1567560377216,-0.08966354370117188,0.6411167907714844,9.754315795898439
1567560377283,-0.23037094116210938,0.6336323547363282,9.81134719848633
1567560377349,0.12828323364257813,0.5764512634277345,9.429790649414063
1567560377416,-0.1573228454589844,0.6057902526855469,9.929152221679688
1567560377483,0.10867401123046876,0.5595364379882812,9.532177734375
1567560377549,-0.1580712890625,0.5801934814453126,9.588011627197266
1567560377616,0.13546829223632814,0.6158193969726563,9.543254699707031
1567560377683,-0.1826202392578125,0.6237528991699219,9.799072723388672
1567560377749,-0.18276992797851563,0.5875282287597656,9.761800231933595
1567560377816,-0.24923171997070315,0.5881269836425782,9.87032455444336
1567560377883,-0.017663269042968752,0.5798941040039063,9.723479919433593
1567560377949,0.06316864013671876,0.5575904846191406,9.464518432617188
1567560378016,-0.045954437255859376,0.6116281127929688,9.762249298095703
1567560378083,0.03562591552734375,0.6098318481445313,9.644893341064453
1567560378149,-0.20851638793945312,0.6201603698730469,9.850865020751954
1567560378216,-0.077838134765625,0.5548960876464843,9.568252716064453
1567560378283,-0.164058837890625,0.6042933654785156,9.856553192138673
1567560378349,0.15118560791015626,0.5547463989257813,9.54744598388672
1567560378416,-0.29832962036132815,0.6153703308105469,9.727671203613282
1567560378483,0.02963836669921875,0.6225553894042969,9.67153793334961
1567560378549,-0.24893234252929688,0.6358776855468751,9.787247314453126
1567560378616,0.11541000366210938,0.5526507568359376,9.5465478515625
1567560378683,-0.07454498291015625,0.6020480346679687,9.746981048583985
1567560378749,0.014220428466796876,0.5815406799316406,9.561666412353516
1567560378816,-0.34982254028320314,0.6204597473144532,9.751621398925781
1567560378883,-0.06661148071289062,0.5936654663085937,9.701176300048829
1567560378949,-0.09714797973632813,0.5751040649414063,9.742191009521484
1567560379016,0.12109817504882812,0.5662724304199219,9.552535400390626
1567560379083,0.04206253051757813,0.621507568359375,9.669442291259767
1567560379149,-0.06481521606445313,0.5944139099121094,9.597142639160158
1567560379216,-0.15837066650390627,0.5977070617675782,9.753866729736329
1567560379283,-0.1682501220703125,0.5536985778808594,9.783505096435547
1567560379349,0.046253814697265624,0.5948629760742188,9.592801666259765
1567560379416,-0.09610015869140626,0.6153703308105469,9.648336181640625
1567560379483,0.21615051269531252,0.6183641052246094,9.786648559570313
1567560379549,-0.32841705322265624,0.6189628601074219,9.79083984375
1567560379616,0.047451324462890625,0.6303392028808594,9.694739685058595
1567560379683,-0.2341131591796875,0.5641767883300781,9.717941436767578
1567560379749,0.08247848510742188,0.5816903686523438,9.529333648681641
1567560379816,-0.1866618347167969,0.678988037109375,9.880503387451173
1567560379883,-0.0556842041015625,0.58198974609375,9.617500305175781
1567560379949,-0.29758117675781254,0.5550457763671875,9.755962371826172
1567560380016,0.1634600830078125,0.6435118103027344,9.643695831298828
1567560380083,-0.16001724243164064,0.647852783203125,9.728868713378906
1567560380149,-0.09205856323242188,0.6147715759277345,9.606273651123047
1567560380216,-0.2089654541015625,0.583187255859375,9.806856536865235
1567560380283,0.18441650390625,0.5941145324707031,9.636660461425782
1567560380349,0.03338058471679688,0.5957611083984375,9.638307037353517
1567560380416,-0.07813751220703126,0.5581892395019532,9.647438049316406
1567560380483,-0.24069946289062502,0.6027964782714844,9.732610931396485
1567560380549,-0.2555186462402344,0.6173162841796875,9.864486694335938
1567560380616,0.07095245361328126,0.5834866333007813,9.608219604492188
1567560380683,-0.10223739624023438,0.530496826171875,9.548194427490236
1567560380749,0.025297393798828127,0.5888754272460938,9.636510772705078
1567560380815,-0.14459930419921876,0.6179150390625,9.765692138671875
1567560380883,-0.1580712890625,0.6462062072753907,9.821675720214845
1567560380949,0.001347198486328125,0.6008505249023438,9.622889099121094
1567560381016,-0.20791763305664063,0.5836363220214844,9.972561950683595
1567560381083,-0.035326538085937505,0.5758525085449219,9.796528015136719
1567560381149,-0.2752775573730469,0.6170169067382812,9.709409179687501
1567560381216,-0.19040405273437502,0.6441105651855469,9.751022644042969
1567560381283,0.10089019775390626,0.6218069458007813,9.639055480957031
1567560381349,-0.14160552978515625,0.5941145324707031,9.77976287841797
1567560381416,0.052989807128906254,0.5312452697753907,9.487720184326172
1567560381483,-0.025147705078125002,0.5769003295898438,9.560618591308595
1567560381549,0.12588821411132814,0.6487509155273438,9.888586578369141
1567560381616,0.03427871704101563,0.6228547668457032,9.48427734375
1567560381683,-0.25761428833007816,0.5852828979492187,9.725425872802735
1567560381749,0.024698638916015626,0.5513035583496094,9.679321746826172
1567560381816,-0.16630416870117187,0.6204597473144532,9.857451324462891
1567560381883,0.024548950195312502,0.6351292419433594,9.627529449462891
1567560381949,-0.03427871704101563,0.6080355834960938,9.539063415527345
1567560382016,-0.001047821044921875,0.5676196289062501,9.665700073242188
1567560382083,-0.10044113159179688,0.5451663208007813,9.583970031738282
1567560382149,-0.25042922973632814,0.6313870239257813,9.769134979248047
1567560382216,-0.05254074096679688,0.621507568359375,9.706864471435548
1567560382283,-0.18276992797851563,0.6080355834960938,9.778265991210938
1567560382349,0.07379653930664062,0.542471923828125,9.490713958740235
1567560382416,-0.09355545043945312,0.5828878784179687,9.822124786376953
1567560382483,0.1722917175292969,0.5695655822753907,9.5465478515625
1567560382550,-0.18636245727539064,0.6074368286132813,9.64324676513672
1567560382616,0.05403762817382813,0.5815406799316406,9.575138397216797
1567560382683,-0.21405487060546877,0.6050418090820313,9.808952178955078
1567560382749,-0.0664617919921875,0.6156697082519531,9.766590270996094
1567560382816,-0.20657043457031252,0.6045927429199219,9.754615173339845
1567560382883,-0.06182144165039063,0.6093827819824219,9.791139221191406
1567560382949,0.1484912109375,0.5668711853027344,9.55223602294922
1567560383016,-0.011675720214843751,0.5760021972656251,9.727521514892578
1567560383083,0.1335223388671875,0.591420135498047,9.657317504882814
1567560383149,-0.3129991149902344,0.6291416931152344,9.784253540039064
1567560383216,-0.011526031494140625,0.5201683044433594,9.364825744628908
1567560383283,-0.023950195312500002,0.6210585021972657,9.865684204101562
1567560383349,0.012873229980468751,0.5270539855957032,9.63800765991211
1567560383416,-0.03562591552734375,0.57240966796875,9.549541625976563
1567560383483,0.1395098876953125,0.6063890075683595,9.654024353027344
1567560383549,0.02844085693359375,0.8092172241210938,9.793534240722657
1567560383616,-0.23096969604492187,0.5519023132324219,9.761051788330079
1567560383683,-0.19893630981445312,0.5836363220214844,9.826316070556642
1567560383749,-0.12020004272460938,0.6029461669921875,9.673483886718751
1567560383816,0.130528564453125,0.6102809143066407,9.43877197265625
1567560383883,-0.015567626953125,0.5945635986328125,9.764943695068359
1567560383949,0.20806732177734377,0.5824388122558594,9.717642059326172
1567560384016,-0.1273851013183594,0.6183641052246094,9.838590545654297
1567560384082,0.09175918579101563,0.6084846496582031,9.532477111816407
1567560384149,-0.25806335449218754,0.6233038330078126,9.865235137939454
1567560384216,-0.014220428466796876,0.5619314575195313,9.761949920654297
1567560384283,-0.2213896179199219,0.5574407958984375,9.761351165771485
1567560384349,-0.0736468505859375,0.5846841430664063,9.613907775878907
1567560384416,0.04445755004882813,0.6397695922851563,9.657766571044922
1567560384483,0.06436614990234375,0.6315367126464844,9.559870147705078
1567560384549,-0.056282958984375006,0.5637277221679687,9.633367309570312
1567560384616,-0.16645385742187502,0.5810916137695313,9.867779846191407
1567560384683,-0.14864089965820312,0.6176156616210938,9.584269409179688
1567560384749,-0.2471360778808594,0.6565347290039063,9.74144256591797
1567560384816,0.08038284301757813,0.613125,9.620793457031251
1567560384883,-0.07738906860351563,0.5951623535156251,9.806407470703126
1567560384949,0.06586303710937501,0.5691165161132813,9.59968734741211
1567560385016,-0.2938389587402344,0.6303392028808594,9.877958679199219
1567560385083,0.01526824951171875,0.5932164001464844,9.627529449462891
1567560385149,-0.2881507873535156,0.5995033264160157,9.759105834960938
1567560385216,0.15582595825195314,0.5797444152832032,9.632020111083985
1567560385283,-0.09056167602539063,0.5911207580566407,9.787995758056642
1567560385349,0.07289840698242188,0.5792953491210938,9.486073608398438
1567560385416,-0.2667453002929688,0.6140231323242188,9.818681945800781
1567560385483,0.03457809448242188,0.591420135498047,9.716145172119141
1567560385549,-0.286204833984375,0.5960604858398438,9.808952178955078
1567560385616,0.040415954589843754,0.5932164001464844,9.625134429931641
1567560385682,-0.22408401489257815,0.6063890075683595,9.745484161376954
1567560385749,0.035176849365234374,0.5888754272460938,9.59489730834961
1567560385816,-0.28156448364257813,0.6048921203613281,9.817783813476563
1567560385883,0.1407073974609375,0.5763015747070312,9.588011627197266
1567560385949,-0.08786727905273438,0.6051914978027344,9.711953887939453
1567560386016,-0.023950195312500002,0.6032455444335938,9.73096435546875
1567560386083,-0.03427871704101563,0.6062393188476562,9.646839294433594
1567560386149,-0.24264541625976563,0.585582275390625,9.83724334716797
1567560386216,0.13516891479492188,0.5839356994628907,9.528585205078125
1567560386283,-0.24563919067382814,0.5677693176269532,9.706864471435548
1567560386349,0.040415954589843754,0.6101312255859376,9.67303482055664
1567560386416,-0.162861328125,0.6381230163574219,9.68590805053711
1567560386483,-0.03323089599609375,0.42302032470703127,9.460925903320312
1567560386549,-0.35670822143554687,0.5179229736328125,9.828411712646485
1567560386616,-0.28216323852539066,0.5095404052734376,9.50478469848633
1567560386683,-0.16046630859375,0.6435118103027344,9.869276733398438
1567560386749,-0.2625540161132813,0.6325845336914063,9.763147430419922
1567560386816,-0.10433303833007813,0.5803431701660157,9.69309310913086
1567560386883,0.19564315795898438,0.5408253479003906,9.471104736328126
1567560386949,-0.0940045166015625,0.5584886169433594,9.727970581054688
1567560387016,0.09520202636718751,0.5987548828125,9.531578979492188
1567560387083,0.041613464355468754,0.6631210327148438,9.574839019775391
1567560387149,-0.04775070190429688,0.6307882690429688,9.702074432373047
1567560387216,-0.012573852539062501,0.6209088134765626,9.625433807373048
1567560387283,-0.027692413330078127,0.6327342224121094,9.772428131103515
1567560387348,-0.17259109497070313,0.6062393188476562,9.74249038696289
1567560387416,-0.15148498535156252,0.592767333984375,9.7381494140625
1567560387483,-0.12334350585937501,0.5764512634277345,9.760303344726562
1567560387549,-0.19160156250000002,0.5622308349609375,9.726024627685547
1567560387616,-0.4221221923828125,0.6710545349121094,9.835297393798829
1567560387683,0.18172210693359375,0.6770420837402344,9.789941711425781
1567560387749,0.5703140258789062,0.6938072204589845,9.747280426025391
1567560387816,-0.5390290832519532,0.5545967102050782,9.83290237426758
1567560387883,-0.7614665222167969,0.5406756591796875,9.75296859741211
1567560387949,-0.5577401733398438,0.6450086975097656,9.437275085449219
1567560388016,0.4999603271484375,0.6411167907714844,9.281449127197266
1567560388083,-0.0473016357421875,0.5777984619140625,9.951904907226563
1567560388149,-0.6267466735839844,0.4932243347167969,9.676028594970704
1567560388216,0.5381309509277344,0.5240602111816407,9.532327423095703
1567560388283,0.5884263610839844,0.7399113464355469,9.842632141113281
1567560388349,0.5263055419921875,0.786763916015625,9.776769104003908
1567560388416,-0.7464976501464844,0.72090087890625,9.833650817871094
1567560388483,-0.5258564758300781,0.6264472961425781,9.838440856933595
1567560388549,0.258662109375,0.6466552734375001,9.735455017089844
1567560388616,0.15762222290039063,0.6089337158203125,9.569150848388672
1567560388683,-0.18486557006835938,0.6271957397460938,9.720037078857422
1567560388749,0.2435435485839844,0.61552001953125,9.683962097167969
1567560388816,-0.31180160522460937,0.5917195129394531,9.705367584228517
1567560388883,-0.21106109619140626,0.6530918884277344,9.81284408569336
1567560388949,0.12783416748046875,0.6197113037109375,9.672885131835939
1567560389016,-0.4040098571777344,0.6080355834960938,9.707313537597656
1567560389083,-0.041613464355468754,0.6291416931152344,9.727371826171876
1567560389149,-0.06586303710937501,0.5794450378417969,9.638756103515625
1567560389216,-0.28380981445312503,0.5962101745605469,9.793534240722657
1567560389283,-0.0005987548828125,0.5809419250488281,9.62887664794922
1567560389349,-0.14385086059570312,0.5755531311035157,9.686955871582033
1567560389416,0.0032931518554687503,0.6285429382324219,9.73096435546875
1567560389483,0.09235794067382813,0.5810916137695313,9.648336181640625
1567560389549,-0.25417144775390627,0.6378236389160157,9.728719024658204
1567560389616,0.09295669555664063,1.0482701110839845,9.722731475830079
1567560389683,0.08846603393554688,1.1982582092285157,9.690548400878907
1567560389749,-0.21585113525390626,1.367406463623047,9.495653686523438
1567560389816,0.0058378601074218755,1.5347584533691407,9.621541900634766
1567560389883,0.10074050903320313,1.4000386047363282,9.511670379638673
1567560389949,-0.2233355712890625,1.3545332336425782,9.53307586669922
1567560390016,-0.053887939453125006,1.3786331176757813,9.756261749267578
1567560390083,0.017513580322265625,1.3223501586914064,9.571545867919923
1567560390149,-0.008831634521484376,1.3078303527832031,9.601782989501954
1567560390216,-0.2070195007324219,1.2716056823730468,9.693691864013672
1567560390283,-0.09684860229492188,1.2452604675292969,9.649533691406251
1567560390349,0.00928070068359375,1.22625,9.51017349243164
1567560390416,-0.2915936279296875,1.1773017883300783,9.78649887084961
1567560390483,0.1167572021484375,1.1541000366210938,9.54220687866211
1567560390549,0.11451187133789063,1.153052215576172,9.593699798583986
1567560390616,-0.21884490966796877,1.1526031494140625,9.64758773803711
1567560390683,-0.0461041259765625,1.1582913208007812,9.62034439086914
1567560390749,0.1167572021484375,1.2039463806152344,9.593699798583986
1567560390816,-0.33784744262695315,1.1704161071777344,9.804760894775391
1567560390883,0.07753875732421875,1.2097842407226562,9.572294311523438
1567560390949,-0.10597961425781251,1.1394305419921875,9.564211120605469
1567560391016,0.10193801879882813,1.1308982849121094,9.53741683959961
1567560391083,-0.3393443298339844,1.1021580505371094,9.845775604248047
1567560391149,-0.21674926757812502,1.071471862792969,9.608968048095704
1567560391216,-0.25042922973632814,1.0210267639160158,9.77736785888672
1567560391283,0.058528289794921876,1.0713221740722656,9.711055755615234
1567560391349,-0.10193801879882813,1.016685791015625,9.43443099975586
1567560391416,-0.060174865722656255,1.0241702270507813,9.727222137451172
1567560391483,-0.20567230224609376,0.9554631042480469,9.737101593017579
1567560391549,-0.11885284423828125,0.9928852844238282,9.836045837402343
1567560391616,-0.24129821777343752,0.9202862548828126,9.767937469482423
1567560391683,0.09654922485351564,0.8936416625976563,9.596094818115235
1567560391749,-0.16301101684570313,0.9440867614746095,9.621841278076172
1567560391816,-0.004939727783203125,0.8710386657714844,9.533674621582032
1567560391883,-0.21405487060546877,0.8912466430664063,9.858648834228516
1567560391949,0.044756927490234376,0.8813671875000001,9.488318939208986
1567560392016,-0.20103195190429687,0.9304650878906251,9.595496063232423
1567560392083,-0.24339385986328127,0.9285191345214844,9.602830810546875
1567560392149,-0.053438873291015626,0.8626560974121095,9.566306762695312
1567560392216,-0.18755996704101563,0.8216413879394532,9.925260314941406
1567560392282,-0.19444564819335938,0.8029302978515626,9.794731750488282
1567560392349,-0.10927276611328125,0.7782316589355469,9.578880615234375
1567560392415,-0.1974394226074219,0.8409512329101563,9.758806457519531
1567560392482,-0.18950592041015626,0.8210426330566407,9.571096801757813
1567560392549,0.04026626586914063,0.8936416625976563,9.549092559814454
1567560392615,-0.012424163818359375,0.7918533325195313,9.477391662597658
1567560392682,-0.21270767211914063,0.8517288208007813,9.786349182128907
1567560392749,-0.2552192687988281,0.8271798706054688,9.842931518554687
1567560392815,-0.0058378601074218755,0.7976911926269532,9.895472259521485
1567560392882,0.014519805908203126,0.7738906860351563,9.711205444335938
1567560392949,-0.032183074951171876,0.6924600219726563,9.828112335205079
1567560393015,-0.456251220703125,0.6747967529296875,9.547745361328126
1567560393082,-0.5553451538085937,0.6692582702636719,9.57004898071289
1567560393149,-0.46523254394531255,0.6206094360351563,9.70701416015625
1567560393216,0.029788055419921876,0.6496490478515625,9.788295135498048
1567560393282,0.0053887939453125,0.7529342651367188,9.729168090820313
1567560393349,0.11076965332031251,0.6971003723144532,9.617649993896485
1567560393416,-0.22647903442382813,0.7068301391601562,9.557475128173829
1567560393482,-0.2697390747070313,0.889749755859375,9.500743103027345
1567560393549,-0.23995101928710938,0.7571255493164063,9.75536361694336
1567560393616,-0.29832962036132815,0.73048095703125,9.970017242431641
1567560393683,-0.3683839416503906,0.6511459350585938,9.91777587890625
1567560393749,-0.38050872802734376,0.7149133300781251,9.830357666015626
1567560393816,-0.2465373229980469,0.6891668701171876,9.629026336669922
1567560393883,-0.168848876953125,0.6712042236328125,9.741143188476563
1567560393949,-0.046702880859375004,0.6956034851074219,9.751771087646485
1567560394016,-0.08891510009765625,0.7324269104003907,9.731263732910156
1567560394083,-0.25761428833007816,0.6252497863769532,9.966724090576172
1567560394149,-0.1898052978515625,0.7081773376464844,9.693691864013672
1567560394216,0.14325210571289063,0.6391708374023438,9.522597656250001
1567560394283,-0.11990066528320313,0.6957531738281251,9.736502838134767
1567560394349,0.07634124755859376,0.6511459350585938,9.644893341064453
1567560394416,0.14474899291992188,0.6277944946289062,9.632469177246094
1567560394483,0.09056167602539063,0.7457492065429688,9.804012451171875
1567560394549,0.2878514099121094,0.6584806823730469,9.68875213623047
1567560394616,-0.19070343017578126,0.6571334838867188,9.693841552734375
1567560394683,0.3897894287109375,0.5569917297363282,9.730066223144531
1567560394749,-0.19908599853515627,0.46343627929687503,9.878707122802735
1567560394816,-0.7137158203125,0.40311172485351565,9.670639801025391
1567560394883,-0.0640667724609375,0.38290374755859374,9.749525756835938
1567560394949,-0.18755996704101563,0.4984634399414063,9.440568237304689
1567560395016,-0.05119354248046875,0.4700225830078125,9.606722717285157
1567560395083,-0.31180160522460937,0.5363346862792969,9.430389404296875
1567560395149,-0.17124389648437502,0.6662644958496095,9.515562286376953
1567560395216,-0.020507354736328125,0.6457571411132813,9.775122528076173
1567560395283,-0.4278103637695313,0.6743476867675782,9.896969146728516
1567560395349,-0.20746856689453125,0.5230123901367187,9.872420196533204
1567560395416,-0.0987945556640625,0.6551875305175782,9.917027435302735
1567560395483,0.00508941650390625,0.6053411865234375,9.848919067382813
1567560395549,0.024698638916015626,0.5342390441894531,9.737999725341798
1567560395616,-0.3715274047851563,0.5767506408691406,9.807006225585939
1567560395683,-0.05987548828125,0.6450086975097656,9.573791198730468
1567560395749,-0.38709503173828125,0.6930587768554688,9.626331939697266
1567560395816,-0.6755451965332031,0.6018983459472657,9.53352493286133
1567560395883,-0.46223876953125004,0.6644682312011719,9.448352050781251
1567560395949,-0.6282435607910156,0.680185546875,9.758956146240235
1567560396016,-0.700543212890625,0.7470964050292969,9.650731201171876
1567560396083,-0.619112548828125,0.5643264770507813,9.565857696533204
1567560396149,-0.628692626953125,0.7722441101074219,9.667047271728515
1567560396216,-0.5792953491210938,0.7351213073730469,9.507928161621095
1567560396283,-0.9303153991699219,1.0407856750488282,9.719737701416015
1567560396349,-1.090781707763672,0.8921447753906251,9.687704315185547
1567560396416,-1.109941864013672,0.9415420532226563,9.722731475830079
1567560396483,-0.7532336425781251,0.7129673767089844,10.243348846435547
1567560396549,-1.1972103881835938,0.8569679260253906,10.476863250732423
1567560396616,-1.0398875427246095,1.1171269226074219,9.95804214477539
1567560396683,0.07768844604492188,1.1067984008789062,9.787995758056642
1567560396749,0.39308258056640627,1.1189231872558594,9.49625244140625
1567560396816,-0.006586303710937501,1.4650035095214844,9.119485931396484
1567560396883,-0.7259902954101562,1.3907579040527345,9.07517807006836
1567560396949,-1.268162841796875,1.1603869628906252,9.418414306640626
1567560397016,-1.2475057983398439,1.2421170043945313,9.206754455566406
1567560397083,-1.2030482482910156,1.2124786376953125,9.779164123535157
1567560397149,-0.7668553161621094,1.366208953857422,9.665700073242188
1567560397216,-0.7810757446289063,1.3813275146484376,9.90864486694336
1567560397283,-0.9572593688964844,1.3205538940429689,9.475745086669923
1567560397349,-0.9788145446777344,1.350791015625,9.646240539550782
1567560397416,-1.204395446777344,1.3864169311523438,9.557624816894531
1567560397483,-1.221310272216797,1.3465997314453126,9.685309295654298
1567560397549,-1.3370196533203125,1.29091552734375,9.59295135498047
1567560397616,-1.116228790283203,1.3452525329589844,9.40763671875
1567560397683,-1.00351318359375,1.2834310913085938,9.379944305419922
1567560397749,-1.5094610595703126,0.8424481201171875,10.328671417236329
1567560397816,-1.3945001220703126,1.1241622924804688,9.991722106933594
1567560397883,-1.120719451904297,1.1142828369140625,9.951605529785157
1567560397949,-0.7720944213867188,1.1921209716796877,9.710007934570314
1567560398016,-0.6511459350585938,1.0060578918457033,9.220974884033204
1567560398083,-0.8590635681152344,1.1365864562988282,9.574539642333985
1567560398149,-0.702938232421875,0.8175997924804688,9.730066223144531
1567560398216,-0.4818479919433594,1.1536509704589843,10.28750701904297
1567560398283,-1.1602372741699218,1.172362060546875,9.80955093383789
1567560398349,-1.5572117614746095,0.8408015441894532,9.771529998779297
1567560398416,-1.2916639709472657,0.9421408081054689,9.564959564208985
1567560398483,-1.2204121398925782,1.110091552734375,9.331295471191407
1567560398549,-0.9972262573242188,0.9949809265136719,9.362430725097656
1567560398616,-0.8723858642578125,1.2877720642089845,9.35344940185547
1567560398683,-0.7945477294921875,1.2012519836425781,9.399703216552735
1567560398749,-0.9680369567871094,1.0951226806640626,9.555529174804688
1567560398816,-0.8620573425292969,1.0940748596191407,9.928553466796876
1567560398883,-0.9735754394531251,1.0044113159179688,9.648785247802735
1567560398949,-1.0238708496093751,0.9595046997070313,9.572444000244142
1567560399016,-0.9797126770019532,1.0952723693847657,9.585017852783203
1567560399083,-0.9801617431640626,1.0951226806640626,9.582173767089845
1567560399149,-1.0307565307617188,1.0797047424316406,9.69159622192383
1567560399216,-0.8699908447265625,1.0124945068359374,9.972861328125001
1567560399283,-1.0660830688476564,1.1415261840820312,9.608369293212892
1567560399349,-0.9815089416503907,0.9717791748046876,9.769284667968751
1567560399416,-0.9382489013671875,1.0786569213867188,9.858648834228516
1567560399483,-1.0470726013183593,0.9358538818359375,9.450597381591797
1567560399549,-0.9909393310546876,0.9460327148437501,9.402846679687501
1567560399616,-0.7090754699707031,0.9788145446777344,9.617799682617187
1567560399683,-0.8985813903808594,1.014290771484375,9.755213928222657
1567560399749,-1.0789562988281252,0.9985734558105469,9.789342956542969
1567560399816,-1.0211764526367189,1.0683283996582031,9.583970031738282
1567560399883,-0.7940986633300782,1.1042536926269533,9.695787506103516
1567560399949,-0.5704637145996094,0.9554631042480469,9.772727508544923
1567560400016,-0.5773493957519532,1.0232720947265626,9.654473419189454
1567560400083,-0.670455780029297,0.98914306640625,9.265432434082031
1567560400149,-0.49591873168945316,1.0985655212402343,9.579179992675781
1567560400216,-0.3622467041015625,1.093027038574219,9.6231884765625
1567560400283,-0.5415737915039063,1.1136840820312501,9.757159881591797
1567560400349,-0.3159928894042969,1.1481124877929687,9.702224121093751
1567560400416,-0.30835876464843753,1.1123368835449219,9.439071350097656
1567560400483,-0.6423143005371094,0.9647438049316407,9.485025787353516
1567560400549,-0.44996429443359376,0.8848100280761719,9.813742218017579
1567560400616,-0.5060975646972656,0.9535171508789063,9.544003143310547
1567560400683,-0.5102888488769531,0.9690847778320313,9.559720458984376
1567560400749,-0.3357518005371094,1.1497590637207031,9.606123962402345
1567560400816,-0.6008505249023438,1.3823753356933595,9.97091537475586
1567560400883,-0.47750701904296877,1.251248016357422,9.813293151855468
1567560400949,-0.5896238708496094,1.3245954895019532,9.547595672607422
1567560401016,-0.790206756591797,1.3286370849609375,9.409283294677735
1567560401083,-0.6222560119628907,1.1355386352539063,9.484427032470704
1567560401149,-0.8503816223144531,1.1367361450195312,9.751920776367188
1567560401216,-0.798739013671875,1.1557466125488283,9.62453567504883
1567560401282,-0.6590794372558594,1.2118798828125001,9.588610382080079
1567560401349,-0.8509803771972657,1.3373190307617189,9.58441909790039
1567560401416,-0.8936416625976563,1.4350657653808594,9.556427307128907
1567560401483,-0.6432124328613281,1.5278727722167968,9.704469451904297
1567560401549,-0.8078700256347656,1.4109658813476562,9.951006774902345
1567560401616,-0.81191162109375,1.281036071777344,9.541608123779298
1567560401683,-0.863404541015625,1.1825408935546875,9.502239990234376
1567560401749,-0.7069798278808594,0.9675878906250001,9.564061431884767
1567560401816,-0.659678192138672,1.005908203125,9.589358825683595
1567560401883,-0.8132588195800782,1.1722123718261719,9.742191009521484
1567560401949,-0.5035528564453126,1.2151730346679688,9.699380035400392
1567560402016,-0.7250921630859375,1.17595458984375,9.76404556274414
1567560402083,-0.8518785095214845,1.0388397216796876,9.47230224609375
1567560402149,-0.3872447204589844,1.0112969970703125,9.656119995117187
1567560402216,-0.3824546813964844,0.8539741516113282,9.790690155029298
1567560402283,-0.5318440246582031,1.0313552856445314,9.49954559326172
1567560402348,-0.24519012451171876,1.1894265747070314,9.687554626464845
1567560402416,-0.11061996459960938,1.3648617553710938,9.270072784423828
1567560402483,-0.354462890625,1.4039305114746095,9.5848681640625
1567560402549,-0.3100053405761719,1.491947479248047,9.490863647460937
1567560402615,-0.3733236694335938,1.490749969482422,9.352251892089845
1567560402683,-0.5519023132324219,1.535357208251953,9.414073333740236
1567560402749,-0.3501219177246094,1.5319143676757814,9.63082260131836
1567560402816,-0.22842498779296877,1.396146697998047,9.486822052001953
1567560402883,-0.2920426940917969,1.5389497375488281,9.69159622192383
1567560402949,-0.1621128845214844,1.5278727722167968,9.774823150634766
1567560403016,-0.048648834228515625,1.4846127319335938,9.665550384521485
1567560403083,0.038470001220703126,1.4186000061035158,9.866881713867189
1567560403149,-0.041912841796875,1.4679972839355468,9.90580078125
1567560403216,-0.08876541137695312,1.2699591064453126,9.589358825683595
1567560403283,0.14115646362304687,1.6185841369628906,9.708960113525391
1567560403349,-0.10059082031250001,1.5088623046875,9.814041595458985
1567560403416,-0.014519805908203126,1.3406121826171875,9.61884750366211
1567560403483,-0.10987152099609375,1.410516815185547,9.558223571777344
1567560403549,-0.143701171875,1.3301339721679688,9.488019561767578
1567560403616,-0.013921051025390626,1.4421011352539064,9.385782165527344
1567560403683,-0.03622467041015625,1.2677137756347656,9.703721008300782
1567560403749,0.034129028320312504,1.055006103515625,9.399703216552735
1567560403816,-0.14175521850585937,1.1847862243652345,9.690398712158204
1567560403883,0.05433700561523438,1.098116455078125,9.690398712158204
1567560403949,0.19414627075195315,1.0229727172851564,9.645342407226563
1567560404016,0.002245330810546875,0.8583151245117188,9.570198669433594
1567560404083,-0.12349319458007812,1.1054512023925782,9.75775863647461
1567560404149,-0.09071136474609376,1.2948074340820312,9.298813018798828
1567560404216,-0.16899856567382812,1.5994239807128907,9.246421966552735
1567560404283,-0.12843292236328124,1.5431410217285157,9.846074981689453
1567560404349,0.13726455688476563,1.4970368957519533,9.649533691406251
1567560404416,-0.20312759399414063,1.2766950988769532,9.960437164306642
1567560404483,0.013921051025390626,1.2496014404296876,9.767638092041016
1567560404549,0.18561401367187502,1.2232562255859376,9.787247314453126
1567560404616,-0.07589218139648438,1.1868818664550782,9.793983306884765
1567560404683,0.101788330078125,1.2151730346679688,9.565109252929688
1567560404749,0.02424957275390625,1.0169851684570312,9.793085174560547
1567560404816,-0.013022918701171875,1.1169772338867188,9.839488677978515
1567560404883,-0.16525634765625,1.0304571533203126,9.98528549194336
1567560404949,-0.19294876098632813,1.210532684326172,9.944570159912109
1567560405016,-0.25192611694335937,1.1942166137695314,9.620494079589845
1567560405083,-0.18516494750976564,1.2054432678222657,9.972112884521485
1567560405149,-0.04894821166992188,1.5753240966796875,9.36647232055664
1567560405216,0.1818717956542969,1.2484039306640626,9.779463500976563
1567560405283,-0.1926493835449219,1.1635304260253907,9.441017303466797
1567560405348,-0.10103988647460938,0.8660989379882813,9.545350341796876
1567560405416,-0.10103988647460938,1.0397378540039064,9.898466033935547
1567560405483,-0.27931915283203124,1.0431806945800781,9.720935211181642
1567560405549,-0.307760009765625,1.0277627563476563,9.753866729736329
1567560405616,-0.2281256103515625,1.1217672729492187,9.781409454345704
1567560405683,-0.2966830444335938,1.0440788269042969,9.62034439086914
1567560405749,-0.36314483642578127,0.8699908447265625,9.918973388671876
1567560405816,-0.21585113525390626,0.9416917419433595,9.536818084716797
1567560405883,-0.1502874755859375,0.9196875,9.732760620117189
1567560405949,-0.24638763427734375,1.0184820556640626,9.536219329833985
1567560406016,-0.14938934326171877,1.0503657531738282,9.690398712158204
1567560406083,-0.3255729675292969,0.6891668701171876,9.301357727050782
1567560406149,-0.35775604248046877,0.6189628601074219,9.698631591796875
1567560406216,0.0425115966796875,0.6584806823730469,9.674831085205078
1567560406283,-0.07155120849609375,0.5731581115722657,9.494456176757813
1567560406349,0.10852432250976562,0.365240478515625,9.983489227294923
1567560406416,-0.28380981445312503,0.4888833618164063,9.186396789550782
1567560406483,-0.3838018798828125,0.5804928588867188,9.872869262695312
1567560406549,-0.550704803466797,0.5060975646972656,9.673184509277345
1567560406616,-0.5022056579589844,0.42766067504882815,9.611363067626954
1567560406683,-0.4125421142578125,0.31374755859375003,9.761500854492189
1567560406749,-0.10523117065429688,0.35221755981445313,9.736353149414063
1567560406816,-0.3112028503417969,0.4058061218261719,9.445358276367188
1567560406883,-0.046702880859375004,0.41149429321289066,9.766141204833986
1567560406949,-0.13501922607421876,0.465831298828125,9.402098236083985
1567560407016,-0.6503974914550782,0.29234207153320313,9.567354583740235
1567560407083,-0.338895263671875,0.35102005004882814,9.883497161865234
1567560407149,-0.41987686157226567,0.3107537841796875,9.982591094970704
1567560407216,-0.26794281005859377,0.36823425292968753,9.763446807861328
1567560407283,0.15148498535156252,0.2293231201171875,9.779912567138672
1567560407348,-0.036374359130859374,0.37781433105468754,9.771979064941407
1567560407416,0.10253677368164063,0.5370831298828125,9.519603881835938
1567560407483,-0.25342300415039065,0.3706292724609375,9.774823150634766
1567560407549,0.30790969848632815,0.15298187255859375,9.591155090332032
1567560407616,-0.2817141723632813,0.5373825073242188,9.531429290771484
1567560407683,-0.4231700134277344,0.4655319213867188,9.633067932128906
1567560407749,-0.2842588806152344,0.5001100158691406,9.54220687866211
1567560407816,-0.2854563903808594,0.3550616455078125,9.724378051757814
1567560407883,-0.13980926513671876,0.35745666503906254,9.728868713378906
1567560407949,-0.26270370483398436,0.26734405517578125,10.123148803710938
1567560408016,-0.3104544067382813,0.5275030517578125,9.677974548339844
1567560408083,0.12079879760742188,0.2601589965820313,9.620494079589845
1567560408149,-0.15567626953125,0.5032534790039063,9.984237670898438
1567560408216,-0.2124082946777344,0.5629792785644532,9.623787231445313
1567560408283,-0.0032931518554687503,0.49951126098632814,9.91388397216797
1567560408348,0.094603271484375,0.4531077575683594,9.46466812133789
1567560408416,-0.06256988525390625,0.4709207153320313,9.830507354736328
1567560408483,-0.26000930786132814,0.36898269653320315,9.927355957031251
1567560408549,-0.19429595947265627,0.4447251892089844,9.943372650146484
1567560408616,-0.27991790771484376,0.38739440917968754,9.454339599609375
1567560408683,-0.4367916870117188,0.3658392333984375,9.732610931396485
1567560408749,-0.24384292602539065,0.590372314453125,9.689051513671876
1567560408816,-0.42047561645507814,0.4643344116210938,9.667496337890626
1567560408883,-0.4025129699707031,0.6599775695800781,9.738897857666016
1567560408949,-0.31629226684570316,0.5057981872558595,9.91972183227539
1567560409016,-0.7018904113769532,0.5008584594726563,9.645492095947267
1567560409083,-0.678838348388672,0.5194198608398438,9.33144515991211
1567560409149,-0.398770751953125,0.494571533203125,9.728719024658204
1567560409216,-0.6905140686035156,0.7899073791503907,9.812245330810548
1567560409283,-0.6634204101562501,0.6685098266601562,9.900262298583986
1567560409349,-0.25357269287109374,0.8137078857421876,9.856253814697267
1567560409416,-0.27333160400390627,0.6008505249023438,9.866432647705079
1567560409483,-0.4315525817871094,0.662073211669922,9.91777587890625
1567560409549,-0.3189866638183594,0.7039860534667969,9.584568786621094
1567560409616,-0.47496231079101564,0.8557704162597657,9.594148864746094
1567560409683,-0.520767059326172,0.6827302551269532,9.443711700439454
1567560409749,-0.29234207153320313,0.7364685058593751,9.60642333984375
1567560409816,-0.2165995788574219,0.8508306884765625,9.5034375
1567560409883,-0.2363584899902344,0.6987469482421875,9.37171142578125
1567560409949,-0.622705078125,0.6647676086425781,9.84442840576172
1567560410016,-0.2477348327636719,0.6390211486816406,9.908794555664063
1567560410083,-0.31225067138671875,0.8294252014160156,9.655072174072266
1567560410149,-0.49472122192382817,0.7638615417480469,9.578431549072267
1567560410216,-0.3296145629882813,0.8619076538085938,9.66195785522461
1567560410283,-0.4623884582519531,0.7394622802734375,9.601782989501954
1567560410348,-0.33545242309570317,0.8096662902832031,9.812544708251954
1567560410416,-0.3418890380859375,0.8295748901367188,9.592801666259765
1567560410483,-0.19504440307617188,0.7768844604492188,9.624984741210938
1567560410549,-0.28351043701171874,0.8292755126953125,9.58292221069336
1567560410616,-0.41284149169921874,0.8161029052734375,9.393565979003906
1567560410683,-0.40625518798828125,0.8786727905273438,9.783804473876954
1567560410749,-0.39113662719726566,0.9464817810058594,9.627978515625001
1567560410816,-0.35401382446289065,0.9312135314941407,9.614805908203126
1567560410883,-0.08412506103515625,0.7656578063964844,9.77452377319336
1567560410949,-0.4628375244140625,0.741258544921875,9.75012451171875
1567560411016,-0.4174818420410156,0.858614501953125,9.513167266845704
1567560411082,-0.15163467407226563,0.9027726745605469,9.609417114257813
1567560411149,-0.25222549438476566,0.9114546203613282,9.625733184814454
1567560411216,-0.21570144653320314,0.9283694458007813,9.708211669921875
1567560411283,-0.20552261352539064,0.8969348144531251,9.509425048828126
1567560411349,-0.2293231201171875,0.8397537231445313,9.541907501220704
1567560411416,-0.44188110351562504,0.9660910034179688,9.619895324707032
1567560411483,-0.29758117675781254,0.7923023986816407,9.636361083984376
1567560411549,-0.49247589111328127,0.858614501953125,9.691296844482423
1567560411616,-0.6004014587402344,0.8646020507812501,9.486073608398438
1567560411683,-0.5074447631835938,0.8294252014160156,9.388476562500001
1567560411749,-0.6930587768554688,0.8577163696289063,9.715845794677735
1567560411816,-0.477806396484375,0.8861572265625001,9.708810424804687
1567560411883,-0.5382806396484375,0.8707392883300782,9.769883422851564
1567560411949,-0.5685177612304688,0.8204438781738281,9.531429290771484
1567560412016,-0.45954437255859376,0.9656419372558595,9.6710888671875
1567560412083,-0.42272094726562504,0.767603759765625,9.42634780883789
1567560412149,-0.4186793518066406,0.7954458618164063,9.602232055664063
1567560412216,-0.35685791015625,0.9461824035644532,9.687704315185547
1567560412283,-0.48514114379882817,0.8530760192871094,9.49340835571289
1567560412348,-0.2974314880371094,0.8397537231445313,9.69069808959961
1567560412416,-0.3983216857910156,0.8527766418457031,9.822573852539064
1567560412483,-0.7424560546875001,0.8199948120117188,9.92780502319336
1567560412549,-0.5767506408691406,0.8975335693359375,9.647138671875
1567560412616,-0.6017486572265626,0.8428971862792969,9.537566528320314
1567560412683,-0.30865814208984377,0.9228309631347656,9.511670379638673
1567560412749,-0.23441253662109376,0.8961863708496094,9.60687240600586
1567560412816,-0.20642074584960937,1.034498748779297,9.572743377685548
1567560412883,-0.3745211791992188,0.7774832153320312,9.436077575683594
1567560412949,-0.20193008422851563,0.8925938415527345,9.78170883178711
1567560413016,-0.42870849609375,0.9258247375488282,9.515113220214845
1567560413083,-0.33545242309570317,0.846639404296875,9.663454742431641
1567560413149,-0.4041595458984375,0.8547225952148438,9.670639801025391
1567560413216,-0.5246589660644532,0.8388555908203126,9.935738525390626
1567560413283,-0.38470001220703126,0.5179229736328125,9.589508514404297
1567560413348,-0.5774990844726563,0.8592132568359375,9.731114044189454
1567560413416,-0.3848497009277344,0.9042695617675782,9.612410888671876
1567560413483,-0.24578887939453126,0.8105644226074219,9.956844635009766
1567560413549,-0.38739440917968754,0.9488768005371094,9.65761688232422
1567560413616,-0.14804214477539063,0.8879534912109376,9.56615707397461
1567560413683,-0.3141966247558594,0.9419911193847657,9.659263458251953
1567560413749,-0.41808059692382815,0.7780819702148438,9.774823150634766
1567560413816,-0.33185989379882813,0.8041278076171875,9.598938903808595
1567560413883,-0.18097366333007814,0.8764274597167969,9.508227539062501
1567560413949,-0.63228515625,0.7458988952636719,9.350904693603516
1567560414016,-0.5980064392089844,0.8518785095214845,9.907447357177736
1567560414083,-0.6319857788085937,0.6688092041015625,9.67438201904297
1567560414149,-0.4746629333496094,0.6258485412597656,9.70985824584961
1567560414216,-0.4005670166015625,0.8014334106445313,9.986333312988283
1567560414283,-0.3896397399902344,0.8033793640136719,9.731114044189454
1567560414349,-0.4728666687011719,0.6170169067382812,9.53936279296875
1567560414416,-0.6908134460449219,0.569864959716797,9.81853225708008
1567560414483,-0.8719367980957031,0.5239105224609375,9.773625640869142
1567560414549,-0.4831951904296875,0.6527925109863282,9.280850372314454
1567560414616,-0.5502557373046876,0.7450007629394532,9.554930419921876
1567560414683,-0.4302053833007813,0.6146218872070313,9.541608123779298
1567560414749,-0.5370831298828125,0.5132826232910157,9.76449462890625
1567560414816,-0.3058140563964844,0.47301635742187503,9.47364944458008
1567560414883,-0.5601351928710938,0.5918692016601563,9.736652526855469
1567560414949,-0.6831793212890626,0.39547760009765626,9.654473419189454
1567560415016,-0.6099815368652344,0.5769003295898438,9.455537109375001
1567560415083,-0.7988887023925781,0.5899232482910156,9.529782714843751
1567560415149,-0.6252497863769532,0.504151611328125,9.521400146484375
1567560415216,-0.4808001708984375,0.6987469482421875,9.719288635253907
1567560415283,-0.3124003601074219,0.38664596557617187,9.612710266113282
1567560415349,-0.6060896301269532,0.5917195129394531,9.752369842529298
1567560415416,-0.2950364685058594,0.45565246582031255,9.580976257324219
1567560415483,-0.4140390014648438,0.48139892578125004,9.624835052490235
1567560415549,-0.5525010681152344,0.2820135498046875,9.187145233154297
1567560415616,-0.6225553894042969,0.4474195861816406,9.796827392578125
1567560415683,-0.4279600524902344,0.528101806640625,9.616901550292969
1567560415749,-0.35131942749023437,0.46912445068359376,9.853709106445313
1567560415816,-0.5978567504882812,0.3918850708007813,9.710457000732422
1567560415883,-0.5659730529785156,0.36119888305664066,9.894424438476562
1567560415949,-0.45939468383789067,0.6273454284667969,9.869276733398438
1567560416016,-0.2746788024902344,0.5337899780273437,9.327553253173829
1567560416083,-0.173638916015625,0.6521937561035157,9.441017303466797
1567560416149,-0.2806663513183594,0.5358856201171875,9.648186492919923
1567560416216,-0.30790969848632815,0.5270539855957032,9.869725799560547
1567560416283,-0.12109817504882812,0.5439688110351563,9.748328247070313
1567560416349,-0.14759307861328125,0.48154861450195313,9.77736785888672
1567560416416,-0.18531463623046876,0.5396278381347657,9.530980224609376
1567560416483,-0.026943969726562503,0.4572990417480469,9.662406921386719
1567560416549,-0.27333160400390627,0.46837600708007815,9.76015365600586
1567560416616,-0.4290078735351563,0.3694317626953125,9.636959838867188
1567560416683,-0.23082000732421876,0.4017645263671875,9.827363891601562
1567560416749,-0.3514691162109375,0.5191204833984375,9.965526580810547
1567560416816,-0.21390518188476565,0.6288423156738282,9.897717590332032
1567560416883,-0.3799099731445313,0.45759841918945315,9.976902923583985
1567560416948,-0.22752685546875,0.5120851135253907,9.555379486083984
1567560417016,-0.44143203735351566,0.2751278686523438,9.759405212402344
1567560417083,-0.14190490722656252,0.6568341064453125,9.753717041015625
1567560417149,-0.15328125,0.39472915649414064,9.795480194091798
1567560417216,-0.29488677978515626,0.7631130981445313,9.65866470336914
1567560417283,-0.23321502685546877,0.5617817687988281,9.45643524169922
1567560417349,-0.22123992919921875,0.5869294738769532,9.536069641113281
1567560417416,-0.24578887939453126,0.3347039794921875,9.702373809814453
1567560417483,0.11466156005859375,0.2908451843261719,9.409882049560547
1567560417549,-0.18172210693359375,0.4040098571777344,9.858499145507812
1567560417616,0.144898681640625,0.46343627929687503,9.601333923339844
1567560417683,-0.02544708251953125,0.5760021972656251,9.895472259521485
1567560417748,0.09071136474609376,0.4751119995117188,9.524393920898438
1567560417815,0.047900390625000004,0.43499542236328126,9.81134719848633
1567560417883,-0.3495231628417969,0.5081932067871094,9.754764862060547
1567560417949,-0.17318984985351563,0.49337402343750003,9.563612365722657
1567560418016,-0.5287005615234375,0.5179229736328125,9.847272491455078
1567560418083,-0.3591032409667969,0.5730084228515625,9.883048095703126
1567560418149,-0.46478347778320317,0.5295986938476562,9.565408630371094
1567560418216,-0.3158432006835938,0.5174739074707031,9.627080383300783
1567560418283,-0.14325210571289063,0.6740483093261719,9.699679412841798
1567560418348,-0.6403683471679688,0.45026367187500005,9.821226654052735
1567560418416,-0.3938310241699219,0.5471122741699219,9.572743377685548
1567560418483,-0.37212615966796875,0.5352868652343751,9.502838745117188
1567560418549,-0.31449600219726564,0.604742431640625,9.605674896240235
1567560418616,-0.21704864501953125,0.6393205261230469,9.263935546875
1567560418683,-0.46193939208984375,0.5562432861328125,9.53786590576172
1567560418749,-0.5074447631835938,0.5349874877929688,9.909992065429687
1567560418816,-0.6990463256835938,0.6252497863769532,10.005792846679688
1567560418883,-0.5791456604003906,0.4152365112304688,10.038275299072266
1567560418949,-0.621507568359375,0.6110293579101563,9.423952789306641
1567560419015,-0.5522016906738282,0.4999603271484375,9.677226104736329
1567560419083,-0.24893234252929688,0.6453080749511719,9.720785522460938
1567560419149,-0.3209326171875,0.645457763671875,10.07674530029297
1567560419216,-0.5577401733398438,0.5345384216308594,10.172845458984375
1567560419283,-0.21869522094726562,0.5450166320800781,9.806706848144533
1567560419349,0.14699432373046875,0.5680686950683594,10.125394134521486
1567560419416,0.15896942138671877,0.5433700561523438,9.441316680908203
1567560419483,0.14340179443359377,0.6456074523925781,9.562265167236328
1567560419549,0.1275347900390625,0.7447013854980469,9.680968322753907
1567560419616,0.09101074218750001,0.6548881530761719,9.574240264892579
1567560419683,-0.12588821411132814,0.49292495727539065,9.726473693847657
1567560419749,-0.17378860473632812,0.6170169067382812,9.83724334716797
1567560419816,0.00389190673828125,0.6565347290039063,9.697733459472657
1567560419883,-0.09190887451171875,0.6146218872070313,9.622589721679688
1567560419949,-0.18696121215820313,0.5550457763671875,9.923763427734375
1567560420016,-0.030386810302734376,0.5966592407226563,9.871821441650392
1567560420083,-0.2549198913574219,0.5923182678222657,9.929601287841797
1567560420149,-0.3543132019042969,0.6122268676757813,9.707163848876954
1567560420216,0.16151412963867187,0.6716532897949219,9.555828552246094
1567560420283,-0.0059875488281250005,0.6301895141601562,9.41197769165039
1567560420349,-0.2947370910644531,0.6179150390625,9.549242248535156
1567560420416,0.2966830444335938,0.6285429382324219,9.790989532470704
1567560420483,-0.00089813232421875,0.5873785400390625,9.828262023925781
1567560420549,-0.17318984985351563,0.6409671020507813,9.761800231933595
1567560420616,-0.24683670043945313,0.6926097106933594,9.566007385253906
1567560420683,0.09789642333984376,0.7038363647460938,9.481283569335938
1567560420749,-0.23590942382812502,0.5501060485839844,9.373208312988282
1567560420816,-0.4746629333496094,0.4324507141113281,9.851763153076172
1567560420883,0.13382171630859377,0.6117778015136719,9.618548126220704
1567560420949,-0.0544866943359375,0.6292913818359376,9.743837585449219
1567560421016,0.12139755249023439,0.9611512756347657,9.72422836303711
1567560421082,0.42421783447265626,0.7580236816406251,9.722731475830079
1567560421149,-0.035326538085937505,0.5409750366210938,9.607770538330078
1567560421216,-0.15717315673828125,0.7695497131347656,9.779014434814453
1567560421283,0.18217117309570313,0.6508465576171876,9.48712142944336
1567560421349,-0.16540603637695314,0.6652166748046875,9.505233764648438
1567560421416,-0.4309538269042969,0.6524931335449219,10.031688995361328
1567560421483,-0.07753875732421875,0.5501060485839844,9.97136444091797
1567560421549,-0.3841012573242188,0.599952392578125,10.148745574951173
1567560421616,-0.6644682312011719,0.4912783813476563,9.756561126708984
1567560421683,-0.12064910888671876,0.6180647277832032,9.65282684326172
1567560421749,-0.27812164306640624,0.5983058166503906,9.687854003906251
1567560421816,-0.6216572570800781,0.5825885009765626,9.493558044433595
1567560421883,0.03667373657226563,0.6062393188476562,9.516011352539063
1567560421949,0.16106506347656252,0.6381230163574219,9.783505096435547
1567560422016,-0.024548950195312502,0.7132667541503906,9.428742828369142
1567560422083,-0.12319381713867188,0.6623725891113281,9.498797149658204
1567560422149,0.031734008789062504,0.5584886169433594,9.902208251953125
1567560422216,0.14280303955078125,0.5777984619140625,9.51017349243164
1567560422282,0.16256195068359375,0.3629951477050781,10.640173645019532
1567560422349,-1.5417938232421875,-2.971021728515625,5.869893493652344
1567560422416,-1.2487033081054688,1.0268646240234376,6.698570251464844
1567560422483,-1.4793736267089845,0.26659561157226563,6.389612731933594
1567560422549,-0.37092864990234375,0.8189469909667969,7.704179077148438
1567560422616,0.06391708374023437,0.5312452697753907,10.15054183959961
1567560422683,0.17917739868164062,0.6300398254394531,9.610614624023437
1567560422749,-0.3730242919921875,0.09385482788085937,11.041788482666016
1567560422816,-2.4432192993164064,-4.616100769042969,5.028343505859375
1567560422883,-2.5020469665527343,0.9117539978027345,9.264234924316407
1567560422949,-0.42272094726562504,0.4819976806640625,10.696755981445314
1567560423016,0.09684860229492188,1.1573931884765625,9.570198669433594
1567560423083,-0.02724334716796875,0.814306640625,9.774374084472656
1567560423149,-0.26494903564453126,1.0337503051757813,9.611812133789064
1567560423216,-0.5548960876464843,1.1094927978515625,9.77407470703125
1567560423283,-0.7057823181152344,1.3224998474121095,9.66195785522461
1567560423349,-0.3733236694335938,1.324146423339844,9.08146499633789
1567560423416,-0.3405418395996094,1.1924203491210938,9.094637603759766
1567560423483,-0.41269180297851565,1.1085946655273438,9.905501403808595
1567560423549,-0.08876541137695312,1.217867431640625,9.1058642578125
1567560423616,0.07349716186523438,1.1033555603027345,9.542955322265625
1567560423683,0.21405487060546877,1.1404783630371094,9.81568817138672
1567560423749,0.027393035888671875,1.1500584411621095,9.458530883789063
1567560423816,-0.13606704711914064,1.1105406188964844,9.71180419921875
1567560423883,0.12843292236328124,1.1716136169433595,9.482032012939454
1567560423949,-0.05134323120117188,1.026265869140625,9.650132446289064
1567560424016,-0.1197509765625,1.063089294433594,9.492510223388672
1567560424083,0.05014572143554688,1.238075408935547,9.347162475585938
1567560424149,0.00089813232421875,1.3010943603515626,8.900940399169922
1567560424216,0.06915618896484375,1.1635304260253907,9.889634399414064
1567560424282,0.06930587768554688,1.2858261108398439,9.399852905273438
1567560424349,0.2616558837890625,1.1940669250488283,9.687105560302735
1567560424416,0.021405487060546877,1.0798544311523437,9.802515563964844
1567560424483,-0.6962022399902345,1.1431727600097656,9.787846069335938
1567560424549,-0.3384461975097656,1.0126441955566408,9.760902099609375
1567560424616,-0.5986051940917969,1.0425819396972658,10.008936309814453
1567560424683,-0.009729766845703125,1.2964540100097657,9.587562561035156
1567560424749,0.28096572875976566,1.0915301513671876,9.265133056640625
1567560424816,0.13367202758789062,1.0388397216796876,9.340426483154298
1567560424883,0.0963995361328125,1.0277627563476563,9.181906127929688
1567560424949,-0.006436614990234376,1.233285369873047,9.852511596679689
1567560425016,-0.004939727783203125,1.0288105773925782,9.894574127197266
1567560425083,0.12349319458007812,1.0168354797363282,9.618997192382812
1567560425149,0.06361770629882812,0.8663983154296876,9.521549835205079
1567560425215,-0.21585113525390626,0.9825567626953126,9.792935485839845
1567560425282,-0.33171020507812504,1.0089019775390626,9.690997467041017
1567560425349,-0.106578369140625,0.8077203369140625,9.901609497070313
1567560425415,-0.08726852416992188,0.8425978088378907,9.567953338623047
1567560425482,-0.137713623046875,1.0003697204589845,9.619895324707032
1567560425549,-0.045954437255859376,0.7887098693847656,9.71270233154297
1567560425615,-0.07738906860351563,0.8018824768066407,9.759554901123048
1567560425682,-0.17259109497070313,0.9274713134765625,9.415869598388673
1567560425749,-0.09520202636718751,0.8514294433593751,9.650581512451172
1567560425815,0.07619155883789062,0.7116201782226563,9.610015869140625
1567560425882,-0.27722351074218754,0.7123686218261719,9.869725799560547
1567560425949,-0.02365081787109375,0.6221063232421875,9.590855712890626
1567560426016,-0.2860551452636719,0.6999444580078126,9.633966064453125
1567560426082,-0.29937744140625,0.6355783081054688,9.862840118408204
1567560426149,-0.19609222412109376,0.775986328125,9.835447082519531
1567560426216,-0.1830693054199219,0.5571414184570312,9.715097351074219
1567560426282,-0.23441253662109376,0.6161187744140625,9.758806457519531
1567560426348,-0.13382171630859377,0.7780819702148438,9.621092834472657
1567560426416,-0.27812164306640624,0.4830455017089844,9.833351440429688
1567560426482,-0.346080322265625,0.6057902526855469,9.846074981689453
1567560426549,-0.20133132934570314,0.69216064453125,9.523795166015626
1567560426616,-0.3531156921386719,0.6569837951660157,9.52633987426758
1567560426682,-0.4290078735351563,0.7246430969238281,9.576485595703126
1567560426749,-0.3875440979003906,0.4932243347167969,10.111922149658204
1567560426816,-0.1980381774902344,0.7346722412109375,9.785750427246095
1567560426883,-0.2041754150390625,0.7809260559082032,9.944719848632813
1567560426949,-0.3159928894042969,0.6780899047851563,9.774374084472656
1567560427016,-0.5867797851562501,0.6393205261230469,9.791887664794922
1567560427083,-0.39547760009765626,0.6843768310546875,10.053393859863283
1567560427149,-0.45939468383789067,0.8831634521484375,9.706565093994142
1567560427216,-0.3932322692871094,0.7961943054199219,9.80565902709961
1567560427283,-0.2616558837890625,0.7903564453125,9.579928436279298
1567560427349,-0.3573069763183594,0.8882528686523438,9.60447738647461
1567560427416,-0.6373745727539063,1.102756805419922,9.628577270507813
1567560427483,-0.6658154296875001,0.8675958251953125,9.753267974853516
1567560427549,-0.3135978698730469,0.8390052795410157,9.68111801147461
1567560427616,-0.36015106201171876,1.0612930297851564,9.338779907226563
1567560427683,-0.32302825927734374,0.9160949707031251,9.619895324707032
1567560427748,-0.6327342224121094,0.9791139221191407,9.573641510009766
1567560427816,-0.5839356994628907,1.1633807373046876,9.451495513916017
1567560427882,-0.3956272888183594,0.9638456726074219,9.531129913330078
1567560427949,-0.5246589660644532,1.0397378540039064,9.582772521972657
1567560428016,-0.24069946289062502,1.0955717468261719,9.413175201416015
1567560428083,-0.2954855346679688,1.0746153259277345,9.349407806396485
1567560428149,-0.27872039794921877,0.9710307312011719,9.735455017089844
1567560428216,-0.1898052978515625,0.8427474975585938,9.380543060302735
1567560428283,-0.45640090942382816,0.9000782775878907,9.708511047363281
1567560428348,-0.25222549438476566,0.6569837951660157,9.367220764160157
1567560428416,-0.25581802368164064,0.5734574890136719,9.996961212158203
1567560428483,-0.4674778747558594,0.8818162536621095,9.438921661376954
1567560428549,-0.2597099304199219,0.7418572998046875,9.568701782226563
1567560428616,-0.31329849243164065,0.748443603515625,9.881401519775391
1567560428683,-0.11511062622070313,0.6701564025878907,9.66001190185547
1567560428749,-0.25641677856445316,0.5786965942382812,9.915231170654298
1567560428816,-0.29234207153320313,0.6965016174316406,9.41332489013672
1567560428883,-0.04954696655273438,0.5110372924804688,9.2351953125
1567560428949,-0.43739044189453125,0.7433541870117187,9.607620849609376
1567560429016,-0.06735992431640625,0.477806396484375,9.885293426513673
1567560429083,-0.17004638671875,0.5584886169433594,9.588610382080079
1567560429149,-0.310155029296875,0.5779481506347657,9.641749877929689
1567560429216,-0.1149609375,0.6122268676757813,9.352251892089845
1567560429283,-0.1293310546875,0.6450086975097656,9.454788665771485
1567560429349,-0.25267456054687504,0.6384223937988281,9.58576629638672
1567560429416,-0.30790969848632815,0.8065228271484376,9.589358825683595
1567560429483,0.02724334716796875,0.7382647705078126,9.295669555664062
1567560429549,-0.3052153015136719,0.7855664062500001,9.406888275146486
1567560429616,-0.01945953369140625,0.7075785827636719,9.157357177734376
1567560429683,-0.05179229736328125,0.866847381591797,9.404343566894532
1567560429749,-0.030985565185546876,-0.0056881713867187505,9.455088043212891
1567560429816,-0.8713380432128907,0.19429595947265627,9.085057525634767
1567560429883,-0.9002279663085938,0.9901908874511719,9.864486694335938
1567560429949,-0.267044677734375,0.690963134765625,9.914482727050782
1567560430016,0.34637969970703125,1.0835966491699218,9.808802490234376
1567560430083,0.42646316528320316,0.8927435302734376,9.277557220458984
1567560430149,-0.2900967407226563,0.8026309204101563,10.004146270751953
1567560430216,-0.9499246215820313,1.0231224060058595,9.283395080566407
1567560430283,-0.6692582702636719,0.8903485107421876,10.24634262084961
1567560430349,-0.7559280395507812,1.2864248657226562,8.914562072753906
1567560430416,-0.06271957397460938,0.29054580688476567,9.425150299072266
1567560430483,-0.1454974365234375,0.7330256652832031,9.794881439208984
1567560430549,-0.039218444824218754,0.6939569091796876,9.438472595214844
1567560430616,-0.2281256103515625,0.8518785095214845,9.460925903320312
1567560430683,-0.5066963195800781,0.6150709533691406,9.686806182861329
1567560430749,-0.05792953491210938,0.4272116088867188,9.730215911865235
1567560430816,-0.5848338317871095,0.8672964477539062,10.18601806640625
1567560430883,-0.24893234252929688,0.7577243041992188,9.728719024658204
1567560430949,-0.47660888671875,0.8080197143554688,9.658215637207032
1567560431016,-0.6765930175781251,0.5414241027832032,9.123527526855469
1567560431083,-0.4017645263671875,0.8114625549316407,9.744436340332031
1567560431149,-0.1981878662109375,0.8137078857421876,9.88708969116211
1567560431216,-0.30761032104492186,0.49651748657226563,9.419013061523438
1567560431283,0.04221221923828125,0.3776646423339844,9.884095916748047
1567560431349,-0.5623805236816406,0.6822811889648438,9.301806793212892
1567560431416,-0.46882507324218753,0.9547146606445313,9.64564178466797
1567560431483,-0.5430706787109375,0.23740631103515628,9.676777038574219
1567560431549,-0.5303471374511719,0.5508544921875,9.841434631347656
1567560431616,-0.6201603698730469,0.6497987365722656,10.353669433593751
1567560431683,-0.2076182556152344,0.6890171813964844,9.4794873046875
1567560431749,-0.45385620117187503,0.69216064453125,9.533674621582032
1567560431816,-0.43888732910156253,0.16929794311523438,9.689650268554688
1567560431883,-0.10927276611328125,0.6050418090820313,9.590256958007814
1567560431948,-0.296982421875,0.6649172973632813,9.85161346435547
1567560432016,-0.5373825073242188,0.4439767456054688,9.542805633544923
1567560432083,-0.42032592773437505,0.37631744384765625,9.712253265380859
1567560432149,-0.19384689331054689,0.4739144897460938,9.158704376220703
1567560432216,-0.10627899169921876,0.5489085388183594,9.368418273925782
1567560432283,0.03457809448242188,0.5480104064941407,9.48712142944336
1567560432349,-0.0461041259765625,0.3740721130371094,9.75296859741211
1567560432416,-0.3842509460449219,0.611927490234375,10.103838958740235
1567560432483,-0.6189628601074219,0.41388931274414065,10.001601562500001
1567560432549,-0.2435435485839844,0.44996429443359376,9.60926742553711
1567560432616,-0.12439132690429688,0.4537065124511719,9.371412048339844
1567560432683,-0.46253814697265627,0.2532733154296875,9.413624267578125
1567560432749,-0.5525010681152344,0.5533992004394531,9.71270233154297
1567560432816,-0.40161483764648437,0.4225712585449219,9.56900115966797
1567560432883,0.001945953369140625,0.09475296020507813,9.264234924316407
1567560432949,0.35326538085937503,0.7140151977539063,9.859546966552735
1567560433016,0.15208374023437501,0.43185195922851566,9.254205780029297
1567560433083,-0.26300308227539065,0.40969802856445314,9.54894287109375
1567560433149,-0.2650987243652344,0.5848338317871095,9.542955322265625
1567560433216,-0.2859054565429688,0.5417234802246094,9.638307037353517
1567560433283,-0.09610015869140626,0.07753875732421875,9.382339324951172
1567560433349,-0.4643344116210938,0.3502716064453125,9.755662994384766
1567560433416,-0.2859054565429688,0.09819580078125001,9.85400848388672
1567560433483,-0.12169692993164063,0.028889923095703127,9.656569061279297
1567560433549,0.005239105224609375,0.41927810668945314,9.110205230712891
1567560433616,0.27842102050781253,0.5031037902832032,9.608219604492188
1567560433683,-0.25237518310546875,0.24444168090820315,9.479786682128907
1567560433749,-0.3296145629882813,0.37122802734375004,9.771080932617188
1567560433816,-0.5004093933105469,0.2704875183105469,9.844877471923828
1567560433883,-0.6005511474609375,0.3034190368652344,9.88948471069336
1567560433949,-0.3070115661621094,0.1981878662109375,9.720785522460938
1567560434016,0.14819183349609374,0.08247848510742188,9.74817855834961
1567560434083,-0.3095562744140625,-0.12918136596679688,9.41527084350586
1567560434149,-0.2805166625976563,0.4860392761230469,9.815388793945313
1567560434216,-0.23740631103515628,0.11017089843750001,9.4507470703125
1567560434282,-0.47256729125976565,0.14534774780273438,10.274184722900392
1567560434349,-0.46957351684570314,0.19249969482421875,9.235345001220704
1567560434416,0.08068222045898438,0.14474899291992188,9.612560577392578
1567560434483,0.42646316528320316,0.04056564331054688,9.296867065429687
1567560434549,-0.047151947021484376,0.3956272888183594,9.968220977783204
1567560434616,-0.10987152099609375,-0.021405487060546877,10.128537597656251
1567560434683,-0.183218994140625,0.22513183593750002,10.145901489257813
1567560434749,0.5966592407226563,0.5303471374511719,10.405461730957033
1567560434816,0.7788304138183594,0.1537303161621094,9.65043182373047
1567560434883,0.6471043395996094,0.5544470214843751,9.35105438232422
1567560434949,0.41688308715820316,0.21764739990234377,9.80086898803711
1567560435016,0.07304809570312501,0.25462051391601564,9.261839904785157
1567560435083,0.3159928894042969,0.07694000244140625,9.62273941040039
1567560435149,0.0892144775390625,0.4474195861816406,9.704619140625
1567560435216,0.22483245849609376,0.4824467468261719,9.8722705078125
1567560435283,0.015567626953125,0.199984130859375,9.745035095214844
1567560435349,0.02065704345703125,0.4839436340332032,9.760303344726562
1567560435416,-0.3794609069824219,0.4207749938964844,9.605824584960938
1567560435483,-0.48978149414062505,0.3276686096191406,9.792037353515626
1567560435549,-0.4589456176757813,0.43888732910156253,9.720186767578125
1567560435616,-0.9761201477050782,0.8018824768066407,9.682016143798828
1567560435683,-1.0629396057128906,0.9874964904785156,9.790989532470704
1567560435749,-0.8152047729492188,0.8663983154296876,9.81763412475586
1567560435816,-0.7156617736816406,-0.5236111450195313,10.342891845703125
1567560435883,-2.1368064880371094,-1.7461189270019533,8.329279174804688
1567560435949,1.6898359680175783,1.1787986755371094,8.173153839111329
1567560436016,-1.238075408935547,1.2796888732910157,10.682984619140626
1567560436082,-0.5890251159667969,0.7207511901855469,10.384654998779297
1567560436149,-0.599952392578125,0.8494834899902344,10.048753509521484
1567560436216,-0.9410929870605469,1.1648776245117187,10.225984954833985
1567560436283,0.9638456726074219,1.6721726989746095,10.951675872802735
1567560436348,-2.1345611572265626,1.0982661437988281,8.127947845458985
1567560436416,-1.124611358642578,0.4785548400878907,11.377989349365235
1567560436483,-0.2912942504882813,1.1704161071777344,8.970695343017578
1567560436549,0.09774673461914063,1.0970686340332032,9.246272277832032
1567560436616,-0.28994705200195314,1.2289443969726563,9.421707458496094
1567560436683,-0.45655059814453125,1.1238629150390627,9.742041320800782
1567560436749,-0.5803431701660157,1.0121951293945313,9.661059722900392
1567560436816,-0.2851570129394531,0.9886940002441407,9.362730102539063
1567560436883,-0.6210585021972657,0.9548643493652345,9.68261489868164
1567560436949,-0.5706134033203125,1.0828482055664064,9.095984802246095
1567560437016,-0.19444564819335938,1.1054512023925782,9.410181427001953
1567560437083,-0.5522016906738282,0.8894503784179688,9.934690704345703
1567560437149,-0.3758683776855469,0.8732839965820313,9.508826293945313
1567560437216,0.08427474975585938,0.9851014709472656,9.586814117431642
1567560437283,-0.24998016357421876,1.1563453674316406,9.765243072509767
1567560437348,0.047900390625000004,1.1897259521484376,9.51915481567383
1567560437416,-0.17214202880859375,1.1286529541015626,9.404493255615234
1567560437483,-0.10553054809570313,0.980610809326172,9.92541000366211
1567560437549,-0.1381626892089844,1.0918295288085937,9.391919403076173
1567560437616,-0.011975097656250001,1.0922785949707032,9.891280975341797
1567560437683,0.030985565185546876,0.9427395629882813,8.977131958007813
1567560437749,-0.3841012573242188,1.2036470031738282,9.834548950195312
1567560437816,-0.4520599365234375,1.0678793334960939,9.582173767089845
1567560437883,-0.1886077880859375,1.0554551696777343,9.811646575927735
1567560437949,-0.0796343994140625,0.9418414306640626,9.856253814697267
1567560438016,-0.2986289978027344,1.0352471923828126,9.800719299316407
1567560438083,-0.25462051391601564,1.351988525390625,9.023834838867188
1567560438149,-0.33290771484375004,0.8044271850585938,9.784702606201172
1567560438216,-0.28530670166015626,1.155596923828125,9.89382568359375
1567560438283,0.00868194580078125,1.1808943176269533,9.638606414794923
1567560438349,-0.26958938598632814,1.0439291381835938,10.00684066772461
1567560438415,-0.4938230895996094,1.1332933044433595,9.648036804199219
1567560438483,-0.45834686279296877,0.7824229431152344,9.832303619384765
1567560438549,0.03592529296875,1.2397219848632812,9.564061431884767
1567560438616,-0.11241622924804688,0.8328680419921876,10.178084564208985
1567560438683,-0.087418212890625,1.0867401123046876,9.853260040283203
1567560438749,-0.07095245361328126,0.9136999511718751,9.87661148071289
1567560438816,-0.1395098876953125,1.0922785949707032,9.978250122070312
1567560438883,-0.2435435485839844,1.0804531860351563,9.787696380615236
1567560438949,-0.2839595031738281,1.3768368530273438,9.455686798095703
1567560439016,-0.39248382568359375,1.0124945068359374,9.418863372802734
1567560439083,-0.5456153869628907,1.2117301940917968,9.698182525634767
1567560439149,-0.45999343872070314,0.991388397216797,9.688602447509766
1567560439216,-0.2656974792480469,1.2240046691894533,9.477391662597658
1567560439283,-0.0143701171875,1.1831396484375,9.671687622070314
1567560439349,-0.0724493408203125,1.2320878601074219,9.323062591552734
1567560439416,-0.047601013183593756,1.0238708496093751,9.544901275634766
1567560439483,-0.08397537231445312,1.1036549377441407,9.650282135009766
1567560439549,-0.5023553466796875,1.1819421386718751,9.59968734741211
1567560439616,-0.3811074829101563,1.0292596435546875,9.616751861572267
1567560439683,-0.20582199096679688,1.1261082458496094,9.252708892822266
1567560439749,-0.38709503173828125,0.9514215087890625,9.729766845703125
1567560439816,-0.053438873291015626,1.2799882507324218,9.321715393066407
1567560439883,0.00029937744140625,0.9288185119628907,9.609716491699219
1567560439949,-0.35745666503906254,1.04183349609375,9.740843811035157
1567560440016,-0.45041336059570314,1.111139373779297,9.636660461425782
1567560440083,-0.3879931640625,1.0940748596191407,9.952353973388673
1567560440149,-0.19534378051757814,0.8893006896972657,9.526190185546875
1567560440216,-0.14879058837890627,1.1638298034667969,9.604178009033204
1567560440283,-0.566422119140625,0.9545649719238282,10.024653625488282
1567560440349,-0.38215530395507813,1.0259664916992188,9.410780181884766
1567560440416,-0.05239105224609375,1.0904823303222657,9.514364776611329
1567560440483,-0.02305206298828125,1.2039463806152344,9.58621536254883
1567560440549,0.16390914916992189,1.1090437316894532,9.60163330078125
1567560440616,-0.4860392761230469,1.0338999938964843,9.44161605834961
1567560440683,-0.5668711853027344,1.033301239013672,9.727521514892578
1567560440749,-0.2655477905273438,0.643062744140625,9.597891082763672
1567560440816,-0.07828720092773438,1.2499008178710938,8.77101058959961
1567560440883,0.060923309326171876,1.1515553283691407,9.438472595214844
1567560440949,-0.5399272155761718,1.0831475830078126,9.616901550292969
1567560441016,-0.7731422424316406,1.0840457153320313,10.002649383544922
1567560441083,-0.5182223510742188,1.0340496826171877,10.026599578857422
1567560441149,-0.2951861572265625,0.6638694763183595,9.409133605957031
1567560441216,-0.25581802368164064,1.004710693359375,9.788594512939454
1567560441283,-0.07993377685546875,1.0976673889160158,9.548493804931642
1567560441349,-0.3487747192382813,1.0234217834472656,9.871821441650392
1567560441416,-0.3882925415039063,0.9285191345214844,9.473499755859375
1567560441483,-0.10732681274414063,1.0882369995117187,9.930649108886719
1567560441549,-0.1926493835449219,1.2003538513183594,10.084678802490235
1567560441616,-0.49052993774414066,0.8229885864257813,9.595645751953125
1567560441683,-0.10029144287109376,0.7286846923828125,9.546847229003907
1567560441748,0.23171813964843752,1.063388671875,9.547895050048828
1567560441816,-0.0520916748046875,0.9518705749511719,9.781858520507813
1567560441883,-0.3023712158203125,0.9339079284667969,9.214238891601562
1567560441949,-0.21270767211914063,1.0163864135742189,9.33863021850586
1567560442016,-0.09849517822265626,0.9303153991699219,9.690099334716797
1567560442083,-0.6643185424804687,0.5619314575195313,10.34738250732422
1567560442149,-0.564027099609375,0.3960763549804688,9.944270782470703
1567560442216,-0.4436773681640625,0.4125421142578125,9.72138427734375
1567560442283,-0.6701564025878907,0.07903564453125,10.123897247314453
1567560442349,-0.7954458618164063,0.25626708984375,9.678124237060548
1567560442416,-1.0535092163085937,0.2912942504882813,9.818681945800781
1567560442483,-0.6171665954589844,0.2951861572265625,9.730664978027344
1567560442549,-0.09624984741210937,0.3607498168945313,9.451645202636719
1567560442616,0.0077838134765625,0.2806663513183594,9.195078735351563
1567560442683,-0.06990463256835938,0.16031661987304688,9.231902160644532
1567560442749,-0.2537223815917969,0.36718643188476563,9.571695556640625
1567560442816,-0.7363188171386719,0.016615447998046876,9.565408630371094
1567560442883,-0.8813671875000001,0.038470001220703126,10.147847442626954
1567560442949,-0.46193939208984375,0.08217910766601563,9.384884033203125
1567560443016,-0.5954617309570313,0.3074606323242188,9.552685089111328
1567560443083,-0.059725799560546876,-0.14265335083007813,9.69593719482422
1567560443149,-0.21704864501953125,0.1633103942871094,9.961784362792969
1567560443216,-0.5704637145996094,0.19968475341796876,9.890532531738282
1567560443283,-0.587977294921875,0.15702346801757813,9.896370391845704
1567560443349,-0.689765625,-0.08517288208007813,9.976753234863281
1567560443416,-0.44981460571289067,-0.012424163818359375,9.029373321533203
1567560443483,0.06721023559570313,0.18965560913085938,9.131760406494141
1567560443549,-0.04879852294921875,0.3592529296875,9.658215637207032
1567560443616,-0.8867559814453125,0.15687377929687502,9.604776763916016
1567560443683,-0.9433383178710938,0.21644989013671875,9.7189892578125
1567560443749,-0.47870452880859377,0.13861175537109377,9.868079223632813
1567560443816,-0.506546630859375,0.1483415222167969,9.60058547973633
1567560443883,-0.36060012817382814,-0.00269439697265625,9.444310455322267
1567560443949,-0.19534378051757814,-0.029788055419921876,9.66584976196289
1567560444016,-0.7132667541503906,0.03338058471679688,9.86508544921875
1567560444083,-0.38170623779296875,0.1770817565917969,9.753717041015625
1567560444149,-0.4927752685546875,-0.3359014892578125,10.1021923828125
1567560444216,-0.7306306457519531,0.2686912536621094,9.495354309082032
1567560444283,-0.4716691589355469,0.09190887451171875,9.858199768066406
1567560444348,-0.5456153869628907,0.14953903198242188,9.915081481933594
1567560444416,-0.4387376403808594,0.25162673950195313,9.165440368652344
1567560444483,-0.46298721313476565,0.06750961303710938,9.508077850341797
1567560444549,-0.18546432495117188,0.11795471191406251,9.430389404296875
1567560444616,-0.35715728759765625,-0.12094848632812501,9.74817855834961
1567560444683,-0.4186793518066406,0.0688568115234375,9.40658889770508
1567560444749,-0.3305126953125,-0.0916094970703125,9.829908599853516
1567560444816,-0.3496728515625,0.183218994140625,9.340426483154298
1567560444883,-0.7008425903320313,0.013771362304687501,9.575587463378907
1567560444949,-0.465831298828125,0.044307861328125,9.5657080078125
1567560445016,-0.5008584594726563,-0.011975097656250001,9.730814666748048
1567560445083,-0.5379812622070312,-0.17408798217773438,9.943522338867188
1567560445149,-0.8951385498046875,0.07229965209960938,9.961484985351563
1567560445216,-0.7149133300781251,-0.21225860595703125,9.654174041748048
1567560445283,-0.5345384216308594,-0.2579136657714844,9.74338851928711
1567560445348,-0.7418572998046875,-0.30177246093750004,10.096653900146485
1567560445416,-0.4596940612792969,-0.09250762939453125,9.505982208251954
1567560445483,-0.7394622802734375,-0.027692413330078127,9.984537048339844
1567560445549,-0.37077896118164066,-0.027093658447265627,9.507179718017579
1567560445616,-0.20507354736328126,-0.2734812927246094,9.461524658203125
1567560445683,-0.6475534057617188,-0.2484832763671875,9.938582611083985
1567560445749,-0.4812492370605469,-0.46598098754882816,9.786798248291015
1567560445816,-0.6373745727539063,-0.3062631225585938,9.567204895019533
1567560445883,-0.3315605163574219,-0.5789959716796875,9.335337066650391
1567560445949,-0.2347119140625,-0.6242019653320313,9.658964080810547
1567560446016,-0.41613464355468754,-0.513731689453125,9.461075592041016
1567560446083,-0.6120771789550782,-0.5391787719726563,9.61450653076172
1567560446149,-0.3852987670898438,-0.6381230163574219,9.682165832519532
1567560446216,-0.5794450378417969,-0.7170089721679688,9.682764587402344
1567560446283,-0.5134323120117188,-0.7840695190429688,10.005493469238282
1567560446348,-0.5298980712890625,-0.5980064392089844,9.746082916259766
1567560446416,-0.6246510314941407,-0.7409591674804688,9.797725524902344
1567560446483,-0.2805166625976563,-0.7908055114746094,9.718689880371095
1567560446549,-0.40086639404296875,-0.7176077270507812,9.559720458984376
1567560446616,-0.047151947021484376,-0.8319699096679688,9.75057357788086
1567560446683,-0.17393829345703127,-0.863404541015625,9.439370727539062
1567560446749,-0.5646258544921875,-0.9607022094726563,9.655221862792969
1567560446816,-0.6914122009277344,-0.7720944213867188,9.703421630859376
1567560446883,-0.6292913818359376,-1.046473846435547,9.62124252319336
1567560446949,-0.21615051269531252,-1.2641212463378906,10.050998840332031
1567560447016,-0.439486083984375,-1.3024415588378906,10.008038177490235
1567560447083,-0.08367599487304687,-1.302740936279297,9.506880340576172
1567560447149,-0.449066162109375,-1.2840298461914064,9.861792297363282
1567560447216,-0.30910720825195315,-1.2195140075683595,9.841883697509767
1567560447283,-0.7099736022949219,-1.4504837036132814,9.915979614257813
1567560447349,-0.566422119140625,-1.4280303955078126,9.936636657714844
1567560447416,-0.5786965942382812,-1.5899935913085939,10.054441680908203
1567560447483,-0.6198609924316406,-1.6374449157714845,9.567953338623047
1567560447549,-0.40670425415039063,-1.5449372863769533,9.839338989257813
1567560447616,-0.63947021484375,-1.7263600158691408,9.61600341796875
1567560447683,-0.520916748046875,-1.6485218811035156,9.949958953857422
1567560447749,-0.4397854614257813,-1.6962725830078127,9.918374633789062
1567560447816,-0.3894900512695313,-1.6908837890625001,9.789642333984375
1567560447883,-0.4465214538574219,-1.9149678039550782,9.715396728515625
1567560447949,-0.7378157043457032,-2.01181640625,10.070458374023438
1567560448016,-0.5412744140625,-2.040406951904297,9.672436065673828
1567560448083,-0.5243595886230469,-1.887125701904297,9.723479919433593
1567560448149,-0.30551467895507817,-2.0266355895996093,9.914482727050782
1567560448216,-0.4870870971679688,-1.8622773742675782,10.077194366455078
1567560448283,-0.35581008911132816,-1.8974542236328127,9.838590545654297
1567560448349,-0.61552001953125,-1.8562898254394533,9.890682220458984
1567560448416,-0.45684997558593754,-1.7509089660644532,9.856852569580079
1567560448483,-0.39233413696289066,-1.6994160461425782,9.986183624267579
1567560448549,-0.43888732910156253,-1.8242564392089844,9.718240814208984
1567560448616,-0.4105961608886719,-1.8685643005371095,9.844278717041016
1567560448683,-0.48454238891601564,-2.0612136840820314,9.917177124023437
1567560448749,-0.34398468017578127,-2.0803738403320313,9.664951629638672
1567560448816,-0.5378315734863282,-1.974543914794922,9.997859344482423
1567560448883,-0.24384292602539065,-1.0665321350097656,9.731712799072266
1567560448949,-0.384400634765625,-0.4132905578613281,9.740544433593751
1567560449016,-0.32572265625,0.3514691162109375,9.755962371826172
1567560449083,-0.29264144897460936,0.6795867919921875,9.648186492919923
1567560449149,-0.18516494750976564,0.7473957824707032,9.59205322265625
1567560449215,-0.5905220031738282,0.8042774963378907,9.734856262207032
1567560449283,-0.5387297058105469,0.8355624389648438,9.756710815429688
1567560449348,-0.4858895874023438,0.8532257080078125,9.721234588623048
1567560449416,-0.5510041809082031,0.9237290954589844,9.69069808959961
1567560449483,-0.3212319946289063,0.8876541137695313,9.617200927734375
1567560449549,-0.3059637451171875,1.0014175415039064,9.586514739990236
1567560449616,-0.602197723388672,1.084794158935547,9.86403762817383
1567560449683,-0.6584806823730469,1.0353968811035157,9.582473144531251
1567560449749,-0.6762936401367188,1.1344908142089845,9.938732299804688
1567560449816,-0.6783892822265626,1.2475057983398439,9.911938018798828
1567560449883,-0.6336323547363282,1.3427078247070314,9.858948211669922
1567560449949,-0.6759942626953125,1.3953982543945314,9.453441467285156
1567560450016,-0.6390211486816406,1.3826747131347656,9.75865676879883
1567560450083,-0.3254232788085938,1.3588742065429689,9.564959564208985
1567560450149,-0.3100053405761719,1.5167958068847658,9.472901000976563
1567560450216,-0.6839277648925781,1.730401611328125,9.697134704589844
1567560450283,-0.7313790893554688,1.876497802734375,9.724078674316408
1567560450349,-0.6914122009277344,2.0646565246582034,9.572593688964844
1567560450416,-0.7322772216796876,2.2474264526367187,9.735155639648438
1567560450483,-1.0288105773925782,2.3743624877929688,9.683363342285157
1567560450549,-0.9975256347656251,2.4304957580566406,9.571096801757813
1567560450616,-1.1764036560058595,2.3676264953613284,9.560618591308595
1567560450683,-1.2391232299804689,2.432292022705078,9.52633987426758
1567560450749,-1.3536351013183594,2.3391856384277343,9.559570770263672
1567560450816,-1.3007949829101564,2.195185089111328,9.615254974365234
1567560450883,-1.6265176391601563,2.1871018981933594,9.448950805664063
1567560450949,-1.4558724975585937,2.108665008544922,9.545200653076172
1567560451016,-1.4269825744628908,2.249971160888672,9.575138397216797
1567560451083,-1.3599220275878907,2.2342538452148437,9.40045166015625
1567560451149,-1.26217529296875,2.175725555419922,9.269474029541016
1567560451216,-1.4233900451660157,2.250120849609375,9.540111236572265
1567560451283,-1.7449214172363283,1.9721488952636719,9.669741668701173
1567560451349,-2.0275337219238283,2.015408935546875,9.69593719482422
1567560451416,-2.085912322998047,2.089654541015625,9.474248199462892
1567560451483,-2.266736297607422,1.8998492431640626,9.749525756835938
1567560451548,-2.082768859863281,1.7648300170898439,9.655521240234375
1567560451616,-1.7586927795410157,1.8197657775878908,9.475445709228516
1567560451683,-1.816622314453125,1.962568817138672,9.799222412109376
1567560451749,-1.841470642089844,2.058519287109375,9.338031463623047
1567560451816,-2.030826873779297,1.9535874938964846,9.552086334228516
1567560451883,-2.137405242919922,1.914668426513672,9.456584930419922
1567560451949,-2.4001089477539064,1.9245478820800783,9.281299438476562
1567560452016,-2.2493724060058593,1.8627264404296875,9.5034375
1567560452083,-2.429148559570313,1.9206559753417969,9.550290069580079
1567560452149,-2.420017547607422,1.8726058959960938,9.370364227294923
1567560452216,-1.9270925903320313,1.6792080688476563,9.718390502929688
1567560452283,-1.894310760498047,1.8182688903808595,9.406289520263673
1567560452349,-2.2546115112304688,1.789977722167969,9.643845520019532
1567560452416,-2.075284423828125,1.5976277160644532,9.544901275634766
1567560452483,-2.1318667602539065,1.5816110229492188,9.775870971679687
1567560452549,-2.334994354248047,1.3817765808105469,9.475745086669923
1567560452616,-2.6696983337402345,1.2638218688964844,9.917626190185548
1567560452683,-2.511177978515625,1.5537689208984375,9.576036529541016
1567560452748,-2.1348605346679688,2.0603155517578124,9.561067657470703
1567560452816,-1.8004559326171876,1.9440074157714844,9.475445709228516
1567560452883,-1.6783099365234375,1.9655625915527344,9.23085433959961
1567560452949,-1.2781919860839845,2.4721092224121093,9.544452209472658
1567560453016,-1.2531939697265626,2.335742797851563,9.474547576904298
1567560453083,-1.9025436401367188,2.4179219055175785,9.862989807128907
1567560453149,-2.1369561767578125,1.6914825439453125,9.965975646972657
1567560453216,-2.1412971496582034,1.6344511413574219,9.937085723876953
1567560453283,-1.8952088928222657,1.6778608703613282,9.632020111083985
1567560453349,-1.85614013671875,1.648671569824219,9.872120819091798
1567560453416,-1.7501605224609376,1.5896942138671877,9.480984191894532
1567560453483,-1.7609381103515627,1.729054412841797,9.494605865478515
1567560453549,-1.7814454650878908,1.7856367492675782,9.951006774902345
1567560453616,-1.4841636657714845,2.078876953125,9.760752410888673
1567560453683,-1.9390676879882813,1.9904109191894532,9.56466018676758
1567560453748,-1.7618362426757814,2.13875244140625,9.37455551147461
1567560453816,-1.7452207946777345,1.7675244140625002,9.606722717285157
1567560453883,-1.593735809326172,1.6061599731445313,9.6519287109375
1567560453949,-1.2801379394531252,1.5979270935058594,9.835447082519531
1567560454016,-0.9545649719238282,1.6119978332519531,9.796228637695313
1567560454083,-1.1039543151855469,1.5958314514160157,10.24918670654297
1567560454149,-1.0056088256835938,1.529070281982422,9.687404937744141
1567560454216,-0.79754150390625,1.3768368530273438,9.783954162597658
1567560454283,-0.5251080322265625,1.4066249084472657,9.437424774169923
1567560454349,-0.583187255859375,1.3904585266113283,9.415570220947266
1567560454416,-0.28455825805664064,1.3630654907226563,9.359137573242188
1567560454483,-0.1633103942871094,1.3632151794433593,9.763746185302734
1567560454549,0.10867401123046876,1.2121792602539063,9.509574737548828
1567560454616,0.013621673583984376,1.2934602355957032,9.680968322753907
1567560454683,0.3320095825195313,1.0774594116210938,9.850565643310548
1567560454749,-0.26195526123046875,1.0882369995117187,9.676477661132813
1567560454816,0.034727783203125,1.12805419921875,9.572294311523438
1567560454883,-0.04101470947265625,1.3036390686035157,9.317524108886719
1567560454949,0.250279541015625,1.1722123718261719,9.595346374511719
1567560455016,0.7071295166015625,0.7119195556640625,9.698182525634767
1567560455083,0.8996292114257813,0.4087998962402344,9.696386260986328
1567560455149,0.7084767150878907,0.5025050354003906,9.529932403564453
1567560455216,0.8773255920410157,-0.1251397705078125,9.530830535888672
1567560455283,0.9882449340820313,0.15432907104492188,9.920320587158203
1567560455349,0.7773335266113282,-0.04999603271484375,9.634115753173829
1567560455416,1.351988525390625,0.30551467895507817,9.696835327148438
1567560455483,1.7859361267089844,0.17932708740234377,9.330397338867188
1567560455549,1.6504678344726564,0.10553054809570313,9.81044906616211
1567560455616,1.6863931274414063,0.06421646118164062,9.70746322631836
1567560455683,1.6133450317382814,0.06182144165039063,9.783505096435547
1567560455749,1.430874481201172,0.14474899291992188,9.587861938476562
1567560455816,1.6018190002441408,-0.0389190673828125,9.919123077392578
1567560455883,1.7417779541015626,0.009729766845703125,9.856104125976563
1567560455949,1.9537371826171877,-0.02604583740234375,9.6519287109375
1567560456016,1.9125727844238283,0.08367599487304687,9.66584976196289
1567560456083,1.5928376770019532,0.06780899047851563,9.331594848632813
1567560456149,1.6733702087402345,-0.04879852294921875,9.60492645263672
1567560456216,1.6471746826171876,-0.0007484436035156251,9.760602722167969
1567560456283,1.8913169860839845,0.1622625732421875,9.362879791259767
1567560456349,1.9029927062988283,-0.06721023559570313,9.97136444091797
1567560456416,1.5563136291503907,0.006586303710937501,9.472601623535157
1567560456483,1.3177098083496095,0.013022918701171875,9.790690155029298
1567560456549,1.9029927062988283,0.22064117431640626,10.037377166748048
1567560456616,1.854942626953125,0.0077838134765625,10.31011001586914
1567560456683,1.9684066772460938,0.007634124755859375,9.778715057373047
1567560456749,2.0303778076171874,0.0556842041015625,9.863289184570313
1567560456816,2.375559997558594,-0.11421249389648438,9.615105285644532
1567560456883,2.3583457946777346,0.1375639343261719,9.767488403320312
1567560456949,2.558030548095703,0.0688568115234375,9.866732025146485
1567560457016,2.4905209350585937,0.031734008789062504,10.071206817626953
1567560457083,2.8818072509765624,-0.24504043579101564,10.138267364501953
1567560457149,3.0258078002929687,0.0101788330078125,10.152487792968751
1567560457216,2.006427612304688,0.10103988647460938,9.60447738647461
1567560457283,2.1013302612304687,0.046253814697265624,9.660311279296875
1567560457349,2.11480224609375,0.008232879638671876,9.626481628417968
1567560457416,2.588117980957031,0.06316864013671876,9.580826568603516
1567560457483,3.3711396789550783,0.06810836791992188,10.128687286376953
1567560457549,3.047362976074219,-0.009430389404296876,9.581874389648439
1567560457616,2.228865051269531,-0.12409194946289064,9.570797424316407
1567560457683,2.434687042236328,-0.010777587890625,10.050400085449219
1567560457749,2.425556030273438,0.06436614990234375,9.98094451904297
1567560457815,1.7910255432128908,0.030835876464843752,9.954449615478516
1567560457882,2.7367588806152345,0.03278182983398438,9.709409179687501
1567560457949,2.781815185546875,0.22543121337890626,9.588909759521485
1567560458015,2.282603302001953,0.1836680603027344,9.961185607910156
1567560458082,2.2839505004882814,1.0815010070800781,9.924062805175781
1567560458149,2.3710693359375,0.8964857482910157,9.824669494628907
1567560458215,2.548600158691406,0.8324189758300782,9.79083984375
1567560458282,2.426005096435547,0.8837622070312501,9.303752746582031
1567560458349,2.0676502990722656,0.8225395202636719,9.912087707519532
1567560458415,1.8288967895507813,0.7831713867187501,9.566306762695312
1567560458482,1.7549505615234375,0.8819659423828126,9.68021987915039
1567560458549,2.023342437744141,0.9532177734375,9.515711975097657
1567560458615,1.5576608276367188,0.8482859802246094,9.687105560302735
1567560458682,1.434467010498047,0.8891510009765625,9.571994934082031
1567560458749,1.324146423339844,0.8738827514648438,9.813742218017579
1567560458816,1.1439212036132813,0.9608518981933595,9.622589721679688
1567560458882,1.1990066528320313,0.91729248046875,9.927056579589845
1567560458949,1.3647120666503907,0.9517208862304688,9.694739685058595
1567560459016,1.3346246337890626,1.0268646240234376,9.74338851928711
1567560459082,1.420096893310547,0.8315208435058594,9.627230072021485
1567560459149,1.6426840209960938,0.9145980834960938,9.680818634033203
1567560459216,1.5597564697265627,1.0292596435546875,9.447453918457033
1567560459283,1.5837066650390625,1.0183323669433595,9.363029479980469
1567560459349,1.2997471618652345,0.9910890197753907,9.729168090820313
1567560459416,1.3787828063964844,1.1573931884765625,9.491761779785156
1567560459483,0.8277786254882813,1.0939251708984377,9.602531433105469
1567560459549,1.218915252685547,1.0410850524902344,9.85071533203125
1567560459616,0.9794132995605469,1.2326866149902345,9.903705139160158
1567560459683,0.8538244628906251,1.4319223022460938,9.650581512451172
1567560459749,0.3543132019042969,1.2939093017578125,9.756261749267578
1567560459816,0.50055908203125,1.3862672424316407,9.42724594116211
1567560459883,0.36479141235351564,1.0473719787597657,9.677076416015625
1567560459949,0.5020559692382813,1.2349319458007812,9.628726959228516
1567560460016,0.3507206726074219,1.1356883239746094,9.55463104248047
1567560460083,0.3998185729980469,0.9804611206054688,9.377100219726563
1567560460149,0.24204666137695313,1.1349398803710937,9.668544158935548
1567560460216,-0.15432907104492188,1.5614030456542969,9.818083190917969
1567560460282,0.108973388671875,1.4087205505371094,9.250762939453125
1567560460349,-0.12199630737304688,1.2516970825195313,9.563462677001954
1567560460416,-0.24144790649414063,1.1389814758300782,9.484576721191408
1567560460483,0.019010467529296877,1.0809022521972658,9.211843872070313
1567560460549,-0.046403503417968756,1.2660671997070314,10.026150512695313
1567560460616,0.20327728271484377,1.362616424560547,9.852361907958985
1567560460683,0.12618759155273437,1.2014016723632812,9.434730377197265
1567560460749,0.09086105346679688,1.1425740051269533,9.790241088867187
1567560460816,-0.19070343017578126,1.4374607849121095,10.06671615600586
1567560460883,-0.3597019958496094,1.3870156860351563,10.050400085449219
1567560460949,-0.20672012329101563,1.2335847473144532,9.690099334716797
1567560461016,-0.44158172607421875,1.4435980224609375,9.647288360595704
1567560461083,-0.7247927856445313,1.4551240539550783,9.785151672363282
1567560461149,-0.12648696899414064,1.176104278564453,9.167835388183594
1567560461216,-0.3338058471679688,1.5497273254394532,9.87990463256836
1567560461283,-0.6080355834960938,1.4617103576660158,9.851463775634766
1567560461349,-0.28979736328125,1.4593153381347657,9.361233215332032
1567560461416,-0.3646417236328125,1.452579345703125,9.624385986328125
1567560461483,-0.659678192138672,1.7654287719726562,9.824669494628907
1567560461549,0.06301895141601563,1.102756805419922,9.600884857177736
1567560461616,0.04535568237304688,1.1325448608398438,9.671388244628906
1567560461683,-0.1622625732421875,1.2533436584472657,9.255552978515626
1567560461749,-0.09565109252929688,1.1868818664550782,9.500892791748047
1567560461816,-0.07274871826171875,1.1988569641113282,10.009385375976564
1567560461883,-0.17034576416015626,0.9068142700195313,9.651329956054688
1567560461949,-0.13516891479492188,1.0571017456054688,9.796378326416017
1567560462016,-0.2805166625976563,1.1097921752929687,9.632618865966798
1567560462083,-0.21390518188476565,1.0636880493164063,9.28114974975586
1567560462149,-0.12723541259765625,0.9777667236328126,9.437873840332031
1567560462216,-0.40969802856445314,1.1448193359375,9.540859680175782
1567560462283,-0.42391845703125003,0.24623794555664064,9.79607894897461
1567560462349,-0.6044430541992187,0.6676116943359376,9.838740234375
1567560462416,-0.40266265869140627,0.4866380310058594,10.214458923339844
1567560462483,-0.18576370239257814,0.34563125610351564,9.431886291503906
1567560462549,-0.1537303161621094,0.34757720947265625,9.459129638671875
1567560462616,-0.6114784240722656,0.3183879089355469,9.62603256225586
1567560462682,-0.32108230590820314,0.27767257690429686,9.290580139160157
1567560462749,-0.5072950744628907,0.2866539001464844,9.805509338378906
1567560462816,-0.18351837158203127,0.3330574035644531,9.609866180419923
1567560462883,-0.6303392028808594,0.2751278686523438,10.210567016601564
1567560462949,-0.44876678466796877,0.48693740844726563,9.184151458740235
1567560463016,-0.46373565673828127,0.22109024047851564,9.990823974609375
1567560463083,-0.5110372924804688,0.3146456909179688,9.717791748046876
1567560463149,-0.458646240234375,0.10208770751953125,9.793983306884765
1567560463216,-0.7698490905761719,0.21824615478515627,9.979148254394532
1567560463283,-0.7572752380371094,0.16585510253906252,9.441017303466797
1567560463349,-0.8554710388183594,0.02604583740234375,9.482630767822267
1567560463416,-0.4700225830078125,0.1119671630859375,9.850116577148437
1567560463483,-0.8256829833984375,-0.11585906982421876,9.696535949707032
1567560463549,-0.868194580078125,0.15657440185546875,9.583071899414064
1567560463616,-0.20597167968750002,-0.06900650024414062,9.706116027832032
1567560463683,-0.4122427368164063,0.29189300537109375,9.886041870117188
1567560463749,-0.28949798583984376,0.21210891723632813,9.462422790527345
1567560463816,-0.21869522094726562,0.0736468505859375,10.03363494873047
1567560463883,-0.35625915527343754,0.062420196533203125,9.62603256225586
1567560463949,-0.4981640625,0.03592529296875,9.826016693115236
1567560464016,-0.46657974243164063,0.4194277954101563,9.58726318359375
1567560464083,-0.5135820007324219,0.10597961425781251,9.71464828491211
1567560464149,-0.8006849670410157,0.42616378784179687,9.59968734741211
1567560464216,-0.7164102172851563,0.07604187011718751,10.081984405517579
1567560464283,-0.15358062744140627,0.3561094665527344,9.833501129150392
1567560464349,-0.27797195434570315,-0.1335223388671875,9.75296859741211
1567560464416,-0.35326538085937503,0.22243743896484375,9.646988983154298
1567560464482,-0.42870849609375,0.19549346923828126,10.015223236083985
1567560464549,-0.32527359008789064,0.2369572448730469,9.820178833007812
1567560464616,-0.09924362182617188,0.12543914794921876,9.819430389404298
1567560464683,-0.3237767028808594,0.20178039550781252,10.008636932373047
1567560464749,-0.26300308227539065,0.16046630859375,9.789792022705079
1567560464816,-0.22109024047851564,0.2484832763671875,9.468410339355469
1567560464883,-0.4620890808105469,0.3391946411132813,9.73291030883789
1567560464949,-0.5490582275390625,0.3502716064453125,9.165590057373047
1567560465016,-0.37212615966796875,0.5960604858398438,9.602381744384767
1567560465083,-0.3608995056152344,0.7890092468261719,9.505682830810548
1567560465149,-0.40191421508789066,0.7096742248535156,9.65043182373047
1567560465216,-0.3495231628417969,1.0056088256835938,9.685159606933594
1567560465283,-0.5108876037597656,0.5313949584960938,9.894125061035156
1567560465349,-0.07469467163085938,0.762813720703125,9.667795715332032
1567560465416,-0.29488677978515626,0.7265890502929688,9.820927276611329
1567560465483,-0.15058685302734376,0.6878196716308594,9.708960113525391
1567560465549,-0.38155654907226566,0.8590635681152344,9.56615707397461
1567560465616,-0.43888732910156253,0.9243278503417969,10.16970199584961
1567560465683,-0.015567626953125,0.9665400695800782,9.814041595458985
1567560465749,-0.04445755004882813,0.6650669860839844,8.946146392822266
1567560465816,-0.24803421020507813,0.9249266052246095,9.643546142578126
1567560465883,-0.5758525085449219,0.9918374633789063,9.724527740478516
1567560465949,-0.15118560791015626,0.8014334106445313,9.697284393310547
1567560466016,0.12633728027343752,0.7930508422851563,9.69788314819336
1567560466083,-0.36015106201171876,0.7384144592285157,10.062225494384766
1567560466149,-0.1095721435546875,0.9274713134765625,10.120454406738281
1567560466216,-0.3842509460449219,0.9580078125,9.613458709716797
1567560466283,-0.6177653503417969,0.7390132141113281,9.739496612548828
1567560466349,-0.6412664794921875,0.8425978088378907,9.587412872314454
1567560466416,-0.7056326293945313,1.0154882812500001,10.125843200683594
1567560466482,-0.7704478454589844,0.9361532592773438,9.514813842773439
1567560466549,-0.48978149414062505,0.8487350463867188,9.567803649902345
1567560466616,-0.4272116088867188,0.5972579956054688,9.610315246582031
1567560466682,-0.7946974182128906,1.0705737304687502,10.112820281982422
1567560466749,-0.5510041809082031,0.7637118530273438,9.962233428955079
1567560466816,-0.6792874145507812,0.8372090148925782,9.609417114257813
1567560466883,-0.7125183105468751,0.8291258239746094,9.566905517578126
1567560466949,-0.5346881103515625,0.5783972167968751,9.544302520751954
1567560467016,-0.6292913818359376,0.3737727355957031,10.098599853515626
1567560467083,-0.549656982421875,0.8096662902832031,9.633816375732422
1567560467149,-0.5917195129394531,0.48529083251953126,9.553583221435547
1567560467216,-0.32572265625,0.43798919677734377,9.59010726928711
1567560467283,-0.6698570251464844,0.40356079101562503,9.882449340820314
1567560467349,-0.7168592834472657,0.5177732849121094,9.774673461914062
1567560467416,-0.7467970275878907,0.5656736755371095,9.733509063720703
1567560467482,-0.5402265930175781,0.3357518005371094,9.58621536254883
1567560467549,-0.1926493835449219,0.5873785400390625,9.878258056640625
1567560467616,-0.34338592529296874,0.31180160522460937,9.661808166503906
1567560467682,-0.11765533447265626,0.5330415344238282,9.3118359375
1567560467749,0.07574249267578126,0.44068359375000005,9.394613800048829
1567560467816,-0.07409591674804687,0.34623001098632816,9.566905517578126
1567560467883,-0.037122802734375,0.5330415344238282,9.829459533691407
1567560467949,0.05837860107421875,0.49367340087890627,9.48083450317383
1567560468016,-0.4357438659667969,0.5828878784179687,9.562115478515626
1567560468083,-0.19848724365234377,0.31883697509765624,9.60447738647461
1567560468149,-0.16570541381835938,0.3914360046386719,9.425150299072266
1567560468216,-0.08247848510742188,0.2938389587402344,9.344468078613282
1567560468283,-0.3442840576171875,0.5336402893066406,9.617500305175781
1567560468349,-0.24144790649414063,0.4004173278808594,9.585616607666017
1567560468416,-0.29907806396484377,0.48648834228515625,9.445807342529298
1567560468483,-0.3879931640625,0.6315367126464844,9.419312438964845
1567560468549,-0.35221755981445313,0.4555027770996094,10.020312652587892
1567560468616,-0.24159759521484375,0.4831951904296875,9.88424560546875
1567560468682,-0.619112548828125,0.5439688110351563,9.672885131835939
1567560468749,-0.1980381774902344,0.4068539428710938,9.320667572021485
1567560468816,-0.7363188171386719,0.4710704040527344,9.092392272949219
1567560468883,-0.5956114196777345,0.45565246582031255,9.666298828125
1567560468949,-0.6435118103027344,0.5143304443359376,9.94501922607422
1567560469016,-0.4884342956542969,0.3255729675292969,9.917027435302735
1567560469083,-0.6521937561035157,0.499361572265625,10.108628997802734
1567560469149,-0.6207591247558594,0.3902384948730469,9.574240264892579
1567560469216,-0.6605763244628906,0.3373983764648438,9.267977142333985
1567560469283,-0.5295986938476562,0.41613464355468754,9.936337280273438
1567560469349,-0.6870712280273438,0.33784744262695315,9.731563110351564
1567560469416,-0.8216413879394532,0.5788462829589844,9.899813232421875
1567560469483,-0.7571255493164063,0.5221142578125,10.202932891845704
1567560469549,-0.40805145263671877,0.40894958496093753,9.554331665039063
1567560469616,-0.2549198913574219,0.4800517272949219,9.813143463134766
1567560469683,-0.568817138671875,0.38889129638671877,9.670939178466798
1567560469749,-0.4686753845214844,0.67300048828125,9.853709106445313
1567560469816,-1.0017169189453126,0.3788621520996094,9.561965789794922
1567560469883,-0.7313790893554688,0.40266265869140627,9.702523498535157
1567560469949,-0.5218148803710938,0.5312452697753907,9.753866729736329
1567560470016,-0.6339317321777344,0.3938310241699219,9.875863037109376
1567560470083,-0.585582275390625,0.3710783386230469,9.813592529296875
1567560470149,-0.6750961303710938,0.5595364379882812,9.294472045898438
1567560470216,-0.5266049194335938,0.4489164733886719,9.544302520751954
1567560470283,-0.7655081176757813,0.5391787719726563,9.692344665527344
1567560470349,-0.26614654541015625,0.2939886474609375,9.887838134765625
1567560470416,-0.20522323608398438,0.7280859375000001,9.706864471435548
1567560470483,-0.33171020507812504,0.5495072937011719,9.801467742919922
1567560470549,0.11166778564453125,0.33560211181640626,9.28399383544922
1567560470616,-0.0041912841796875,0.3448828125,9.258247375488281
1567560470683,-0.058677978515625,0.3119512939453125,9.54939193725586
1567560470749,-0.4037104797363281,0.298179931640625,9.8626904296875
1567560470816,-0.116158447265625,0.33141082763671875,9.796528015136719
1567560470883,-0.18471588134765626,0.3192860412597656,9.692494354248048
1567560470948,0.06601272583007813,0.3740721130371094,9.719288635253907
1567560471016,-0.46418472290039064,0.3135978698730469,9.492510223388672
1567560471083,-0.27991790771484376,0.2281256103515625,9.567354583740235
1567560471149,-0.3788621520996094,0.33021331787109376,10.28466293334961
1567560471216,-0.2677931213378906,0.37137771606445313,9.776769104003908
1567560471283,-0.5469625854492188,0.19953506469726565,9.648186492919923
1567560471349,-0.22348526000976562,0.32482452392578126,10.071206817626953
1567560471416,-0.43304946899414065,0.030087432861328128,9.854307861328126
1567560471483,-0.3598516845703125,0.21674926757812502,9.63995361328125
1567560471549,-0.14953903198242188,0.02155517578125,9.397757263183594
1567560471616,-0.06721023559570313,0.39892044067382815,9.44401107788086
1567560471683,-0.18636245727539064,0.20402572631835938,9.40045166015625
1567560471749,-0.4962181091308594,0.36718643188476563,9.615853729248048
1567560471816,-0.7146139526367188,0.2903961181640625,9.742640075683594
1567560471883,-0.7503895568847657,-0.0016465759277343752,9.641151123046875
1567560471949,-0.06271957397460938,0.3112028503417969,9.374705200195313
1567560472016,-0.42242156982421875,0.2650987243652344,9.512718200683594
1567560472083,-0.4746629333496094,0.3745211791992188,9.870174865722657
1567560472149,-0.4626878356933594,0.21285736083984377,9.689051513671876
1567560472216,-0.6819818115234375,0.2890489196777344,9.719588012695313
1567560472283,-0.48753616333007815,0.2701881408691406,9.681417388916016
1567560472349,-0.6655160522460938,0.07140151977539062,9.758357391357423
1567560472416,-0.417930908203125,0.29264144897460936,9.16529067993164
1567560472483,-0.33545242309570317,0.33290771484375004,9.81134719848633
1567560472549,-0.6674620056152344,0.22079086303710938,9.97854949951172
1567560472616,-0.7554789733886719,0.2820135498046875,9.753118286132812
1567560472683,-0.8315208435058594,0.31210098266601566,9.739795989990235
1567560472749,-0.5677693176269532,0.21001327514648438,9.676926727294923
1567560472816,-0.678838348388672,0.1586700439453125,9.800569610595703
1567560472883,-0.6349795532226563,0.14938934326171877,9.581125946044923
1567560472949,-0.46478347778320317,0.2674937438964844,9.608219604492188
1567560473016,-0.6078858947753907,0.32706985473632816,9.543105010986329
1567560473083,-0.4704716491699219,0.29368927001953127,9.403146057128907
1567560473149,-0.25806335449218754,0.27617568969726564,9.662107543945313
1567560473216,-0.4093986511230469,0.23605911254882814,9.33952835083008
1567560473283,-0.4944218444824219,0.4626878356933594,9.394464111328125
1567560473348,-0.5727090454101563,0.22513183593750002,9.596693572998047
1567560473416,-0.4601431274414063,0.2902464294433594,9.696835327148438
1567560473483,-0.46912445068359376,0.29593460083007816,9.839937744140625
1567560473549,-0.5858816528320313,0.259859619140625,9.521549835205079
1567560473616,-0.4944218444824219,0.2664459228515625,9.472152557373047
1567560473683,-0.3638932800292969,0.32841705322265624,9.494605865478515
1567560473749,-0.5528004455566407,0.5276527404785156,9.48038543701172
1567560473816,-0.5789959716796875,0.20597167968750002,9.60732147216797
1567560473883,-0.4578977966308594,0.2710862731933594,9.339977416992188
1567560473949,-0.6724017333984376,0.15881973266601562,9.669442291259767
1567560474016,-0.37437149047851564,0.24668701171875002,9.810149688720704
1567560474083,-1.1106903076171875,0.271834716796875,9.717791748046876
1567560474149,-0.9497749328613282,0.20522323608398438,9.948013000488281
1567560474216,-0.9918374633789063,0.23171813964843752,9.679321746826172
1567560474283,-1.0445278930664064,0.25222549438476566,9.583970031738282
1567560474348,-1.0100994873046876,0.21704864501953125,9.835447082519531
1567560474416,-1.0336006164550782,0.15657440185546875,9.788744201660156
1567560474483,-0.5483097839355469,0.2932402038574219,9.953701171875
1567560474549,-0.8294252014160156,0.43768981933593754,9.81134719848633
1567560474616,-0.8156538391113282,0.4435276794433594,9.751920776367188
1567560474683,-0.75922119140625,0.3823049926757813,9.915081481933594
1567560474749,-0.7168592834472657,0.5658233642578125,9.608518981933594
1567560474816,-0.5572911071777344,0.6038442993164063,9.647138671875
1567560474883,-0.5040019226074219,0.787811737060547,9.98289047241211
1567560474949,-0.16705261230468751,-1.9552340698242188,9.926906890869141
1567560475016,-3.185226287841797,1.5396981811523438,6.6243246459960945
1567560475083,-2.192640380859375,0.8147557067871094,8.062683563232422
1567560475149,-1.4593153381347657,1.1091934204101563,6.638694763183594
1567560475216,0.12124786376953126,0.7246430969238281,9.384285278320313
1567560475283,-0.25162673950195313,0.5068460083007813,9.785151672363282
1567560475348,-0.07948471069335938,0.7291337585449219,9.31512908935547
1567560475416,-0.6439608764648438,1.0602452087402345,9.555080108642578
1567560475483,-1.3428575134277345,-3.332519989013672,5.318140869140625
1567560475549,-0.4243675231933594,1.1707154846191408,6.490802307128907
1567560475616,-1.2605287170410158,1.2844789123535156,8.919202423095703
1567560475683,-0.07918533325195314,0.32677047729492187,9.281748504638673
1567560475749,-0.5848338317871095,0.945883026123047,9.709409179687501
1567560475816,-0.7250921630859375,1.3980926513671876,9.607920227050782
1567560475883,-0.6200106811523438,1.0029144287109375,9.759405212402344
1567560475949,-0.7152127075195313,0.8961863708496094,9.47364944458008
1567560476016,-0.9205856323242188,0.9128018188476563,9.626182250976562
1567560476083,-0.7433541870117187,0.8443940734863282,9.666448516845703
1567560476149,-0.6560856628417969,0.8750802612304688,9.698332214355469
1567560476216,-0.40191421508789066,0.9638456726074219,9.670340423583985
1567560476283,-0.3769161987304688,1.0237211608886718,9.707612915039062
1567560476348,-0.5815406799316406,0.7487429809570313,9.810898132324219
1567560476416,-0.7252418518066407,1.0828482055664064,9.70417007446289
1567560476483,-0.4481680297851563,1.069525909423828,9.559271392822266
1567560476549,-0.25147705078125,1.0541079711914063,9.552685089111328
1567560476616,-0.532891845703125,1.0629396057128906,9.764344940185547
1567560476683,-0.3830534362792969,1.096769256591797,9.78455291748047
1567560476749,-0.49906219482421876,0.9148974609375,10.09351043701172
1567560476816,-0.5054988098144532,1.0749147033691406,9.585915985107423
1567560476883,-0.45759841918945315,1.1213182067871095,9.698032836914063
1567560476949,-0.5337899780273437,1.1298504638671876,9.17427200317383
1567560477016,-0.2231858825683594,1.2195140075683595,9.575437774658203
1567560477083,-0.2716850280761719,1.1762539672851564,9.682016143798828
1567560477149,-0.1375639343261719,0.9021739196777344,9.685159606933594
1567560477216,-0.23366409301757815,1.1750564575195312,9.732311553955078
1567560477283,-0.24758514404296877,1.1784992980957032,9.721084899902344
1567560477349,-0.19384689331054689,1.0579998779296875,10.010133819580078
1567560477416,-0.0892144775390625,1.0894345092773439,9.421857147216798
1567560477483,-0.058977355957031255,0.9096583557128907,9.621092834472657
1567560477549,-0.10747650146484375,0.9119036865234376,9.393865356445312
1567560477616,-0.21016296386718752,1.1500584411621095,9.942324829101564
1567560477683,-0.024548950195312502,1.1443702697753906,9.638756103515625
1567560477749,-0.13157638549804687,1.0720706176757813,9.754315795898439
1567560477816,-0.47675857543945316,1.1936178588867188,9.787247314453126
1567560477883,-0.3305126953125,0.9949809265136719,9.506580963134766
1567560477949,-0.0940045166015625,1.084794158935547,9.549691314697267
1567560478016,-0.32257919311523436,0.9966275024414063,9.64564178466797
1567560478083,-0.30805938720703124,0.9024732971191407,9.921967163085938
1567560478149,-0.47451324462890626,1.004860382080078,9.737700347900391
1567560478216,-0.5754034423828125,1.0587483215332032,9.805509338378906
1567560478283,-0.41703277587890625,0.8994795227050781,9.767638092041016
1567560478349,-0.3758683776855469,0.9009764099121094,9.695039062500001
1567560478416,-0.4644841003417969,0.9533674621582032,9.553134155273439
1567560478483,-0.34982254028320314,0.9189390563964844,9.62603256225586
1567560478549,-0.3124003601074219,0.9759704589843751,9.569450225830078
1567560478616,-0.3411405944824219,0.8607101440429688,9.23414749145508
1567560478683,-0.22573059082031252,0.7897576904296876,9.319320373535156
1567560478749,-0.21899459838867188,0.7556286621093751,9.460027770996094
1567560478816,-0.4578977966308594,0.8578660583496094,9.931696929931642
1567560478883,-0.1537303161621094,0.7267387390136719,9.610914001464844
1567560478949,-0.456251220703125,0.8030799865722656,9.643546142578126
1567560479016,-0.5766009521484375,0.8113128662109376,9.46466812133789
1567560479083,-0.144898681640625,0.8066725158691407,9.674082641601563
1567560479149,0.08472381591796875,0.5810916137695313,9.455836486816407
1567560479216,-0.09235794067382813,0.8036787414550781,9.933792572021485
1567560479283,-0.0031434631347656253,0.6188131713867188,9.76539276123047
1567560479349,-0.3531156921386719,0.5541476440429688,9.64998275756836
1567560479416,-0.3011737060546875,0.4351451110839844,9.774823150634766
1567560479483,-0.259859619140625,0.7804769897460938,10.091414794921876
1567560479549,0.125738525390625,0.5571414184570312,9.737101593017579
1567560479616,-0.22049148559570314,0.7605683898925781,9.689051513671876
1567560479683,-0.05942642211914063,0.5710624694824219,9.511371002197267
1567560479749,-0.013471984863281251,0.5942642211914063,9.76299774169922
1567560479816,-0.44038421630859376,0.4640350341796875,10.033784637451172
1567560479883,-0.7955955505371094,0.40131546020507813,10.002350006103516
1567560479949,-0.4727169799804688,0.6902146911621094,9.870174865722657
1567560480015,-0.4453239440917969,0.42945693969726567,9.416168975830079
1567560480083,-0.2281256103515625,0.3641926574707031,9.969717864990235
1567560480149,-0.08247848510742188,0.6280938720703125,9.684111785888673
1567560480216,-0.12334350585937501,0.3710783386230469,9.59968734741211
1567560480283,-0.2820135498046875,0.41912841796875,9.60058547973633
1567560480349,-0.4794529724121094,0.6324348449707031,9.161847839355469
1567560480416,-0.8271798706054688,0.40894958496093753,9.493857421875001
1567560480483,-0.4923262023925781,0.5022056579589844,9.58052719116211
